"text","rt","key_press","block_duration","timing_post_trial","trial_id","trial_type","trial_index","time_elapsed","internal_node_id","exp_id","full_screen","focus_shifts","view_history","stimulus","possible_responses","stim_duration","stimuli","key_presses","stim_durations","exp_stage","sequence","num_digits","mouse_click","response","condition","correct","responses"
"<div class = centerbox><p class = center-block-text>Welcome to the experiment. This experiment will take less than 10 minutes. Press <strong>enter</strong> to begin.</p></div>","1490","13","1490","0","instruction","poldrack-text","0","1491","0.0-0.0-0.0","digit-span","true","0","","","","","","","","","","","","","","",""
"","35995","","","","instruction","poldrack-instructions","1","37487","0.0-0.0-1.0","digit-span","true","0","[{""page_index"":0,""viewing_time"":35995}]","","","","","","","","","","","","","",""
"","-1","-1","1000","1000","test_intro","poldrack-single-stim","2","39491","0.0-1.0","digit-span","true","0","","<div class = centerbox><div class = center-text>3 Digits</p></div>","none","1000","","","","","","","","","","",""
"","[-1]","","3000","0","stim","poldrack-multi-stim-multi-response","3","43495","0.0-2.0","digit-span","true","0","","","none","","[""<div class = centerbox><div class = digit-span-text>3</div></div>"",""<div class = centerbox><div class = digit-span-text>7</div></div>"",""<div class = centerbox><div class = digit-span-text>3</div></div>""]","[-1]","[800,800,800]","test","3,7,3","3","","","","",""
"","4548","","4548","500","response","single-stim-button","4","48045","0.0-3.0","digit-span","true","0","","","","4548","","","","test","3,7,3","3","SubmitButton","3,7,3","forward","true",""
"","-1","-1","1000","1000","feedback","poldrack-single-stim","5","49548","0.0-4.0","digit-span","true","0","","<div class = centerbox><div class = center-text><span style=""color:green"">Correct!</span></div></div>","none","1000","","","","","","","","","","",""
"","-1","-1","1000","1000","test_intro","poldrack-single-stim","6","51549","0.0-5.0","digit-span","true","0","","<div class = centerbox><div class = center-text>4 Digits</p></div>","none","1000","","","","","","","","","","",""
"","[-1]","","4000","0","stim","poldrack-multi-stim-multi-response","7","56552","0.0-6.0","digit-span","true","0","","","none","","[""<div class = centerbox><div class = digit-span-text>4</div></div>"",""<div class = centerbox><div class = digit-span-text>7</div></div>"",""<div class = centerbox><div class = digit-span-text>1</div></div>"",""<div class = centerbox><div class = digit-span-text>6</div></div>""]","[-1]","[800,800,800,800]","test","4,7,1,6","4","","","","",""
"","3718","","3718","500","response","single-stim-button","8","60270","0.0-7.0","digit-span","true","0","","","","3718","","","","test","4,7,1,6","4","SubmitButton","4,7,1,6","forward","true",""
"","-1","-1","1000","1000","feedback","poldrack-single-stim","9","61772","0.0-8.0","digit-span","true","0","","<div class = centerbox><div class = center-text><span style=""color:green"">Correct!</span></div></div>","none","1000","","","","","","","","","","",""
"","-1","-1","1000","1000","test_intro","poldrack-single-stim","10","63773","0.0-9.0","digit-span","true","0","","<div class = centerbox><div class = center-text>5 Digits</p></div>","none","1000","","","","","","","","","","",""
"","[-1]","","5000","0","stim","poldrack-multi-stim-multi-response","11","69775","0.0-10.0","digit-span","true","0","","","none","","[""<div class = centerbox><div class = digit-span-text>9</div></div>"",""<div class = centerbox><div class = digit-span-text>2</div></div>"",""<div class = centerbox><div class = digit-span-text>9</div></div>"",""<div class = centerbox><div class = digit-span-text>1</div></div>"",""<div class = centerbox><div class = digit-span-text>9</div></div>""]","[-1]","[800,800,800,800,800]","test","9,2,9,1,9","5","","","","",""
"","6254","","6254","500","response","single-stim-button","12","76030","0.0-11.0","digit-span","true","0","","","","6254","","","","test","9,2,9,1,9","5","SubmitButton","9,2,1,9","forward","false",""
"","-1","-1","1000","1000","feedback","poldrack-single-stim","13","77531","0.0-12.0","digit-span","true","0","","<div class = centerbox><div class = center-text><span style=""color:red"">Incorrect</span></div></div>","none","1000","","","","","","","","","","",""
"","-1","-1","1000","1000","test_intro","poldrack-single-stim","14","79532","0.0-13.0","digit-span","true","0","","<div class = centerbox><div class = center-text>5 Digits</p></div>","none","1000","","","","","","","","","","",""
"","[-1]","","5000","0","stim","poldrack-multi-stim-multi-response","15","85532","0.0-14.0","digit-span","true","0","","","none","","[""<div class = centerbox><div class = digit-span-text>4</div></div>"",""<div class = centerbox><div class = digit-span-text>8</div></div>"",""<div class = centerbox><div class = digit-span-text>4</div></div>"",""<div class = centerbox><div class = digit-span-text>7</div></div>"",""<div class = centerbox><div class = digit-span-text>3</div></div>""]","[-1]","[800,800,800,800,800]","test","4,8,4,7,3","5","","","","",""
"","3953","","3953","500","response","single-stim-button","16","89485","0.0-15.0","digit-span","true","0","","","","3953","","","","test","4,8,4,7,3","5","SubmitButton","4,8,4,7,3","forward","true",""
"","-1","-1","1000","1000","feedback","poldrack-single-stim","17","90988","0.0-16.0","digit-span","true","0","","<div class = centerbox><div class = center-text><span style=""color:green"">Correct!</span></div></div>","none","1000","","","","","","","","","","",""
"","-1","-1","1000","1000","test_intro","poldrack-single-stim","18","92989","0.0-17.0","digit-span","true","0","","<div class = centerbox><div class = center-text>6 Digits</p></div>","none","1000","","","","","","","","","","",""
"","[-1]","","6000","0","stim","poldrack-multi-stim-multi-response","19","99991","0.0-18.0","digit-span","true","0","","","none","","[""<div class = centerbox><div class = digit-span-text>7</div></div>"",""<div class = centerbox><div class = digit-span-text>2</div></div>"",""<div class = centerbox><div class = digit-span-text>5</div></div>"",""<div class = centerbox><div class = digit-span-text>2</div></div>"",""<div class = centerbox><div class = digit-span-text>5</div></div>"",""<div class = centerbox><div class = digit-span-text>1</div></div>""]","[-1]","[800,800,800,800,800,800]","test","7,2,5,2,5,1","6","","","","",""
"","10694","","10694","500","response","single-stim-button","20","110686","0.0-19.0","digit-span","true","0","","","","10694","","","","test","7,2,5,2,5,1","6","SubmitButton","7,2,5,2,7,1","forward","false",""
"","-1","-1","1000","1000","feedback","poldrack-single-stim","21","112187","0.0-20.0","digit-span","true","0","","<div class = centerbox><div class = center-text><span style=""color:red"">Incorrect</span></div></div>","none","1000","","","","","","","","","","",""
"","-1","-1","1000","1000","test_intro","poldrack-single-stim","22","114189","0.0-21.0","digit-span","true","0","","<div class = centerbox><div class = center-text>5 Digits</p></div>","none","1000","","","","","","","","","","",""
"","[-1]","","5000","0","stim","poldrack-multi-stim-multi-response","23","120192","0.0-22.0","digit-span","true","0","","","none","","[""<div class = centerbox><div class = digit-span-text>4</div></div>"",""<div class = centerbox><div class = digit-span-text>8</div></div>"",""<div class = centerbox><div class = digit-span-text>3</div></div>"",""<div class = centerbox><div class = digit-span-text>6</div></div>"",""<div class = centerbox><div class = digit-span-text>2</div></div>""]","[-1]","[800,800,800,800,800]","test","4,8,3,6,2","5","","","","",""
"","10558","","10558","500","response","single-stim-button","24","130750","0.0-23.0","digit-span","true","0","","","","10558","","","","test","4,8,3,6,2","5","SubmitButton","4,8,6,2,4,1","forward","false",""
"","-1","-1","1000","1000","feedback","poldrack-single-stim","25","132253","0.0-24.0","digit-span","true","0","","<div class = centerbox><div class = center-text><span style=""color:red"">Incorrect</span></div></div>","none","1000","","","","","","","","","","",""
"","-1","-1","1000","1000","test_intro","poldrack-single-stim","26","134253","0.0-25.0","digit-span","true","0","","<div class = centerbox><div class = center-text>5 Digits</p></div>","none","1000","","","","","","","","","","",""
"","[-1]","","5000","0","stim","poldrack-multi-stim-multi-response","27","140255","0.0-26.0","digit-span","true","0","","","none","","[""<div class = centerbox><div class = digit-span-text>3</div></div>"",""<div class = centerbox><div class = digit-span-text>9</div></div>"",""<div class = centerbox><div class = digit-span-text>5</div></div>"",""<div class = centerbox><div class = digit-span-text>9</div></div>"",""<div class = centerbox><div class = digit-span-text>1</div></div>""]","[-1]","[800,800,800,800,800]","test","3,9,5,9,1","5","","","","",""
"","7047","","7047","500","response","single-stim-button","28","147302","0.0-27.0","digit-span","true","0","","","","7047","","","","test","3,9,5,9,1","5","SubmitButton","3,8,5,9,1","forward","false",""
"","-1","-1","1000","1000","feedback","poldrack-single-stim","29","148804","0.0-28.0","digit-span","true","0","","<div class = centerbox><div class = center-text><span style=""color:red"">Incorrect</span></div></div>","none","1000","","","","","","","","","","",""
"","-1","-1","1000","1000","test_intro","poldrack-single-stim","30","150806","0.0-29.0","digit-span","true","0","","<div class = centerbox><div class = center-text>4 Digits</p></div>","none","1000","","","","","","","","","","",""
"","[-1]","","4000","0","stim","poldrack-multi-stim-multi-response","31","155807","0.0-30.0","digit-span","true","0","","","none","","[""<div class = centerbox><div class = digit-span-text>4</div></div>"",""<div class = centerbox><div class = digit-span-text>7</div></div>"",""<div class = centerbox><div class = digit-span-text>3</div></div>"",""<div class = centerbox><div class = digit-span-text>8</div></div>""]","[-1]","[800,800,800,800]","test","4,7,3,8","4","","","","",""
"","6303","","6303","500","response","single-stim-button","32","162111","0.0-31.0","digit-span","true","0","","","","6303","","","","test","4,7,3,8","4","SubmitButton","4,8,7,3","forward","false",""
"","-1","-1","1000","1000","feedback","poldrack-single-stim","33","163612","0.0-32.0","digit-span","true","0","","<div class = centerbox><div class = center-text><span style=""color:red"">Incorrect</span></div></div>","none","1000","","","","","","","","","","",""
"","-1","-1","1000","1000","test_intro","poldrack-single-stim","34","165613","0.0-33.0","digit-span","true","0","","<div class = centerbox><div class = center-text>4 Digits</p></div>","none","1000","","","","","","","","","","",""
"","[-1]","","4000","0","stim","poldrack-multi-stim-multi-response","35","170614","0.0-34.0","digit-span","true","0","","","none","","[""<div class = centerbox><div class = digit-span-text>7</div></div>"",""<div class = centerbox><div class = digit-span-text>1</div></div>"",""<div class = centerbox><div class = digit-span-text>4</div></div>"",""<div class = centerbox><div class = digit-span-text>9</div></div>""]","[-1]","[800,800,800,800]","test","7,1,4,9","4","","","","",""
"","3575","","3575","500","response","single-stim-button","36","174189","0.0-35.0","digit-span","true","0","","","","3575","","","","test","7,1,4,9","4","SubmitButton","7,1,4,9","forward","true",""
"","-1","-1","1000","1000","feedback","poldrack-single-stim","37","175692","0.0-36.0","digit-span","true","0","","<div class = centerbox><div class = center-text><span style=""color:green"">Correct!</span></div></div>","none","1000","","","","","","","","","","",""
"","-1","-1","1000","1000","test_intro","poldrack-single-stim","38","177692","0.0-37.0","digit-span","true","0","","<div class = centerbox><div class = center-text>5 Digits</p></div>","none","1000","","","","","","","","","","",""
"","[-1]","","5000","0","stim","poldrack-multi-stim-multi-response","39","183694","0.0-38.0","digit-span","true","0","","","none","","[""<div class = centerbox><div class = digit-span-text>5</div></div>"",""<div class = centerbox><div class = digit-span-text>8</div></div>"",""<div class = centerbox><div class = digit-span-text>2</div></div>"",""<div class = centerbox><div class = digit-span-text>6</div></div>"",""<div class = centerbox><div class = digit-span-text>1</div></div>""]","[-1]","[800,800,800,800,800]","test","5,8,2,6,1","5","","","","",""
"","5383","","5383","500","response","single-stim-button","40","189078","0.0-39.0","digit-span","true","0","","","","5383","","","","test","5,8,2,6,1","5","SubmitButton","5,8,2,6,1","forward","true",""
"","-1","-1","1000","1000","feedback","poldrack-single-stim","41","190579","0.0-40.0","digit-span","true","0","","<div class = centerbox><div class = center-text><span style=""color:green"">Correct!</span></div></div>","none","1000","","","","","","","","","","",""
"","-1","-1","1000","1000","test_intro","poldrack-single-stim","42","192580","0.0-41.0","digit-span","true","0","","<div class = centerbox><div class = center-text>6 Digits</p></div>","none","1000","","","","","","","","","","",""
"","[-1]","","6000","0","stim","poldrack-multi-stim-multi-response","43","199581","0.0-42.0","digit-span","true","0","","","none","","[""<div class = centerbox><div class = digit-span-text>4</div></div>"",""<div class = centerbox><div class = digit-span-text>8</div></div>"",""<div class = centerbox><div class = digit-span-text>4</div></div>"",""<div class = centerbox><div class = digit-span-text>8</div></div>"",""<div class = centerbox><div class = digit-span-text>1</div></div>"",""<div class = centerbox><div class = digit-span-text>7</div></div>""]","[-1]","[800,800,800,800,800,800]","test","4,8,4,8,1,7","6","","","","",""
"","7559","","7559","500","response","single-stim-button","44","207140","0.0-43.0","digit-span","true","0","","","","7559","","","","test","4,8,4,8,1,7","6","SubmitButton","4,8,4,8,1,7","forward","true",""
"","-1","-1","1000","1000","feedback","poldrack-single-stim","45","208643","0.0-44.0","digit-span","true","0","","<div class = centerbox><div class = center-text><span style=""color:green"">Correct!</span></div></div>","none","1000","","","","","","","","","","",""
"","-1","-1","1000","1000","test_intro","poldrack-single-stim","46","210644","0.0-45.0","digit-span","true","0","","<div class = centerbox><div class = center-text>7 Digits</p></div>","none","1000","","","","","","","","","","",""
"","[-1]","","7000","0","stim","poldrack-multi-stim-multi-response","47","218647","0.0-46.0","digit-span","true","0","","","none","","[""<div class = centerbox><div class = digit-span-text>9</div></div>"",""<div class = centerbox><div class = digit-span-text>4</div></div>"",""<div class = centerbox><div class = digit-span-text>8</div></div>"",""<div class = centerbox><div class = digit-span-text>5</div></div>"",""<div class = centerbox><div class = digit-span-text>2</div></div>"",""<div class = centerbox><div class = digit-span-text>8</div></div>"",""<div class = centerbox><div class = digit-span-text>4</div></div>""]","[-1]","[800,800,800,800,800,800,800]","test","9,4,8,5,2,8,4","7","","","","",""
"","25110","","25110","500","response","single-stim-button","48","243757","0.0-47.0","digit-span","true","0","","","","25110","","","","test","9,4,8,5,2,8,4","7","SubmitButton","9,2,4,8,5,1","forward","false",""
"","-1","-1","1000","1000","feedback","poldrack-single-stim","49","245259","0.0-48.0","digit-span","true","0","","<div class = centerbox><div class = center-text><span style=""color:red"">Incorrect</span></div></div>","none","1000","","","","","","","","","","",""
"","-1","-1","1000","1000","test_intro","poldrack-single-stim","50","247259","0.0-49.0","digit-span","true","0","","<div class = centerbox><div class = center-text>6 Digits</p></div>","none","1000","","","","","","","","","","",""
"","[-1]","","6000","0","stim","poldrack-multi-stim-multi-response","51","254261","0.0-50.0","digit-span","true","0","","","none","","[""<div class = centerbox><div class = digit-span-text>8</div></div>"",""<div class = centerbox><div class = digit-span-text>4</div></div>"",""<div class = centerbox><div class = digit-span-text>9</div></div>"",""<div class = centerbox><div class = digit-span-text>6</div></div>"",""<div class = centerbox><div class = digit-span-text>3</div></div>"",""<div class = centerbox><div class = digit-span-text>6</div></div>""]","[-1]","[800,800,800,800,800,800]","test","8,4,9,6,3,6","6","","","","",""
"","6823","","6823","500","response","single-stim-button","52","261086","0.0-51.0","digit-span","true","0","","","","6823","","","","test","8,4,9,6,3,6","6","SubmitButton","9,8,4,6,3,6","forward","false",""
"","-1","-1","1000","1000","feedback","poldrack-single-stim","53","262588","0.0-52.0","digit-span","true","0","","<div class = centerbox><div class = center-text><span style=""color:red"">Incorrect</span></div></div>","none","1000","","","","","","","","","","",""
"","-1","-1","1000","1000","test_intro","poldrack-single-stim","54","264589","0.0-53.0","digit-span","true","0","","<div class = centerbox><div class = center-text>6 Digits</p></div>","none","1000","","","","","","","","","","",""
"","[-1]","","6000","0","stim","poldrack-multi-stim-multi-response","55","271592","0.0-54.0","digit-span","true","0","","","none","","[""<div class = centerbox><div class = digit-span-text>5</div></div>"",""<div class = centerbox><div class = digit-span-text>8</div></div>"",""<div class = centerbox><div class = digit-span-text>5</div></div>"",""<div class = centerbox><div class = digit-span-text>8</div></div>"",""<div class = centerbox><div class = digit-span-text>3</div></div>"",""<div class = centerbox><div class = digit-span-text>7</div></div>""]","[-1]","[800,800,800,800,800,800]","test","5,8,5,8,3,7","6","","","","",""
"","4518","","4518","500","response","single-stim-button","56","276110","0.0-55.0","digit-span","true","0","","","","4518","","","","test","5,8,5,8,3,7","6","SubmitButton","5,8,5,8,3,7","forward","true",""
"","-1","-1","1000","1000","feedback","poldrack-single-stim","57","277612","0.0-56.0","digit-span","true","0","","<div class = centerbox><div class = center-text><span style=""color:green"">Correct!</span></div></div>","none","1000","","","","","","","","","","",""
"<div class = centerbox><p class = block-text>In these next trials, instead of reporting back the sequence you just saw, report the <strong>reverse</strong> of that sequence. So the last item should be first in your response, the second to last should be the second in your response, etc...</p><p class = block-text>Press <strong>enter</strong> to begin.</p></div>","12341","13","12341","1000","start_reverse","poldrack-text","58","290954","0.0-58.0","digit-span","true","0","","","","","","","","","","","","","","",""
"","-1","-1","1000","1000","test_intro","poldrack-single-stim","59","292956","0.0-59.0","digit-span","true","0","","<div class = centerbox><div class = center-text>3 Digits</p></div>","none","1000","","","","","","","","","","",""
"","[-1]","","3000","0","stim","poldrack-multi-stim-multi-response","60","296958","0.0-60.0","digit-span","true","0","","","none","","[""<div class = centerbox><div class = digit-span-text>8</div></div>"",""<div class = centerbox><div class = digit-span-text>1</div></div>"",""<div class = centerbox><div class = digit-span-text>6</div></div>""]","[-1]","[800,800,800]","test","8,1,6","3","","","","",""
"","3896","","3896","500","response","single-stim-button","61","300854","0.0-61.0","digit-span","true","0","","","","3896","","","","test","8,1,6","3","SubmitButton","6,1,8","reverse","true",""
"","-1","-1","1000","1000","feedback","poldrack-single-stim","62","302355","0.0-62.0","digit-span","true","0","","<div class = centerbox><div class = center-text><span style=""color:green"">Correct!</span></div></div>","none","1000","","","","","","","","","","",""
"","-1","-1","1000","1000","test_intro","poldrack-single-stim","63","304356","0.0-63.0","digit-span","true","0","","<div class = centerbox><div class = center-text>4 Digits</p></div>","none","1000","","","","","","","","","","",""
"","[-1]","","4000","0","stim","poldrack-multi-stim-multi-response","64","309358","0.0-64.0","digit-span","true","0","","","none","","[""<div class = centerbox><div class = digit-span-text>4</div></div>"",""<div class = centerbox><div class = digit-span-text>8</div></div>"",""<div class = centerbox><div class = digit-span-text>3</div></div>"",""<div class = centerbox><div class = digit-span-text>8</div></div>""]","[-1]","[800,800,800,800]","test","4,8,3,8","4","","","","",""
"","6391","","6391","500","response","single-stim-button","65","315749","0.0-65.0","digit-span","true","0","","","","6391","","","","test","4,8,3,8","4","SubmitButton","8,3,4,8","reverse","false",""
"","-1","-1","1000","1000","feedback","poldrack-single-stim","66","317251","0.0-66.0","digit-span","true","0","","<div class = centerbox><div class = center-text><span style=""color:red"">Incorrect</span></div></div>","none","1000","","","","","","","","","","",""
"","-1","-1","1000","1000","test_intro","poldrack-single-stim","67","319252","0.0-67.0","digit-span","true","0","","<div class = centerbox><div class = center-text>4 Digits</p></div>","none","1000","","","","","","","","","","",""
"","[-1]","","4000","0","stim","poldrack-multi-stim-multi-response","68","324253","0.0-68.0","digit-span","true","0","","","none","","[""<div class = centerbox><div class = digit-span-text>7</div></div>"",""<div class = centerbox><div class = digit-span-text>3</div></div>"",""<div class = centerbox><div class = digit-span-text>7</div></div>"",""<div class = centerbox><div class = digit-span-text>3</div></div>""]","[-1]","[800,800,800,800]","test","7,3,7,3","4","","","","",""
"","5608","","5608","500","response","single-stim-button","69","329862","0.0-69.0","digit-span","true","0","","","","5608","","","","test","7,3,7,3","4","SubmitButton","3,7,3,7","reverse","true",""
"","-1","-1","1000","1000","feedback","poldrack-single-stim","70","331364","0.0-70.0","digit-span","true","0","","<div class = centerbox><div class = center-text><span style=""color:green"">Correct!</span></div></div>","none","1000","","","","","","","","","","",""
"","-1","-1","1000","1000","test_intro","poldrack-single-stim","71","333365","0.0-71.0","digit-span","true","0","","<div class = centerbox><div class = center-text>5 Digits</p></div>","none","1000","","","","","","","","","","",""
"","[-1]","","5000","0","stim","poldrack-multi-stim-multi-response","72","339365","0.0-72.0","digit-span","true","0","","","none","","[""<div class = centerbox><div class = digit-span-text>6</div></div>"",""<div class = centerbox><div class = digit-span-text>9</div></div>"",""<div class = centerbox><div class = digit-span-text>3</div></div>"",""<div class = centerbox><div class = digit-span-text>6</div></div>"",""<div class = centerbox><div class = digit-span-text>2</div></div>""]","[-1]","[800,800,800,800,800]","test","6,9,3,6,2","5","","","","",""
"","7368","","7368","500","response","single-stim-button","73","346733","0.0-73.0","digit-span","true","0","","","","7368","","","","test","6,9,3,6,2","5","SubmitButton","2,6,9,6,3","reverse","false",""
"","-1","-1","1000","1000","feedback","poldrack-single-stim","74","348235","0.0-74.0","digit-span","true","0","","<div class = centerbox><div class = center-text><span style=""color:red"">Incorrect</span></div></div>","none","1000","","","","","","","","","","",""
"","-1","-1","1000","1000","test_intro","poldrack-single-stim","75","350236","0.0-75.0","digit-span","true","0","","<div class = centerbox><div class = center-text>4 Digits</p></div>","none","1000","","","","","","","","","","",""
"","[-1]","","4000","0","stim","poldrack-multi-stim-multi-response","76","355237","0.0-76.0","digit-span","true","0","","","none","","[""<div class = centerbox><div class = digit-span-text>7</div></div>"",""<div class = centerbox><div class = digit-span-text>4</div></div>"",""<div class = centerbox><div class = digit-span-text>8</div></div>"",""<div class = centerbox><div class = digit-span-text>1</div></div>""]","[-1]","[800,800,800,800]","test","7,4,8,1","4","","","","",""
"","4248","","4248","500","response","single-stim-button","77","359486","0.0-77.0","digit-span","true","0","","","","4248","","","","test","7,4,8,1","4","SubmitButton","1,8,4,7","reverse","true",""
"","-1","-1","1000","1000","feedback","poldrack-single-stim","78","360987","0.0-78.0","digit-span","true","0","","<div class = centerbox><div class = center-text><span style=""color:green"">Correct!</span></div></div>","none","1000","","","","","","","","","","",""
"","-1","-1","1000","1000","test_intro","poldrack-single-stim","79","362989","0.0-79.0","digit-span","true","0","","<div class = centerbox><div class = center-text>5 Digits</p></div>","none","1000","","","","","","","","","","",""
"","[-1]","","5000","0","stim","poldrack-multi-stim-multi-response","80","368991","0.0-80.0","digit-span","true","0","","","none","","[""<div class = centerbox><div class = digit-span-text>8</div></div>"",""<div class = centerbox><div class = digit-span-text>5</div></div>"",""<div class = centerbox><div class = digit-span-text>2</div></div>"",""<div class = centerbox><div class = digit-span-text>7</div></div>"",""<div class = centerbox><div class = digit-span-text>1</div></div>""]","[-1]","[800,800,800,800,800]","test","8,5,2,7,1","5","","","","",""
"","26022","","26022","500","response","single-stim-button","81","395014","0.0-81.0","digit-span","true","0","","","","26022","","","","test","8,5,2,7,1","5","SubmitButton","1,7,2,5,8","reverse","true",""
"","-1","-1","1000","1000","feedback","poldrack-single-stim","82","396516","0.0-82.0","digit-span","true","0","","<div class = centerbox><div class = center-text><span style=""color:green"">Correct!</span></div></div>","none","1000","","","","","","","","","","",""
"","-1","-1","1000","1000","test_intro","poldrack-single-stim","83","398516","0.0-83.0","digit-span","true","0","","<div class = centerbox><div class = center-text>6 Digits</p></div>","none","1000","","","","","","","","","","",""
"","[-1]","","6000","0","stim","poldrack-multi-stim-multi-response","84","405518","0.0-84.0","digit-span","true","0","","","none","","[""<div class = centerbox><div class = digit-span-text>8</div></div>"",""<div class = centerbox><div class = digit-span-text>2</div></div>"",""<div class = centerbox><div class = digit-span-text>9</div></div>"",""<div class = centerbox><div class = digit-span-text>6</div></div>"",""<div class = centerbox><div class = digit-span-text>3</div></div>"",""<div class = centerbox><div class = digit-span-text>8</div></div>""]","[-1]","[800,800,800,800,800,800]","test","8,2,9,6,3,8","6","","","","",""
"","20512","","20512","500","response","single-stim-button","85","426031","0.0-85.0","digit-span","true","0","","","","20512","","","","test","8,2,9,6,3,8","6","SubmitButton","6,3,9,2,8,6","reverse","false",""
"","-1","-1","1000","1000","feedback","poldrack-single-stim","86","427532","0.0-86.0","digit-span","true","0","","<div class = centerbox><div class = center-text><span style=""color:red"">Incorrect</span></div></div>","none","1000","","","","","","","","","","",""
"","-1","-1","1000","1000","test_intro","poldrack-single-stim","87","429532","0.0-87.0","digit-span","true","0","","<div class = centerbox><div class = center-text>6 Digits</p></div>","none","1000","","","","","","","","","","",""
"","[-1]","","6000","0","stim","poldrack-multi-stim-multi-response","88","436534","0.0-88.0","digit-span","true","0","","","none","","[""<div class = centerbox><div class = digit-span-text>5</div></div>"",""<div class = centerbox><div class = digit-span-text>9</div></div>"",""<div class = centerbox><div class = digit-span-text>1</div></div>"",""<div class = centerbox><div class = digit-span-text>8</div></div>"",""<div class = centerbox><div class = digit-span-text>5</div></div>"",""<div class = centerbox><div class = digit-span-text>1</div></div>""]","[-1]","[800,800,800,800,800,800]","test","5,9,1,8,5,1","6","","","","",""
"","18206","","18206","500","response","single-stim-button","89","454741","0.0-89.0","digit-span","true","0","","","","18206","","","","test","5,9,1,8,5,1","6","SubmitButton","1,5,8,1,5,9","reverse","false",""
"","-1","-1","1000","1000","feedback","poldrack-single-stim","90","456243","0.0-90.0","digit-span","true","0","","<div class = centerbox><div class = center-text><span style=""color:red"">Incorrect</span></div></div>","none","1000","","","","","","","","","","",""
"","-1","-1","1000","1000","test_intro","poldrack-single-stim","91","458244","0.0-91.0","digit-span","true","0","","<div class = centerbox><div class = center-text>5 Digits</p></div>","none","1000","","","","","","","","","","",""
"","[-1]","","5000","0","stim","poldrack-multi-stim-multi-response","92","464245","0.0-92.0","digit-span","true","0","","","none","","[""<div class = centerbox><div class = digit-span-text>3</div></div>"",""<div class = centerbox><div class = digit-span-text>9</div></div>"",""<div class = centerbox><div class = digit-span-text>1</div></div>"",""<div class = centerbox><div class = digit-span-text>5</div></div>"",""<div class = centerbox><div class = digit-span-text>2</div></div>""]","[-1]","[800,800,800,800,800]","test","3,9,1,5,2","5","","","","",""
"","14640","","14640","500","response","single-stim-button","93","478885","0.0-93.0","digit-span","true","0","","","","14640","","","","test","3,9,1,5,2","5","SubmitButton","3,1,5,9,2","reverse","false",""
"","-1","-1","1000","1000","feedback","poldrack-single-stim","94","480387","0.0-94.0","digit-span","true","0","","<div class = centerbox><div class = center-text><span style=""color:red"">Incorrect</span></div></div>","none","1000","","","","","","","","","","",""
"","-1","-1","1000","1000","test_intro","poldrack-single-stim","95","482388","0.0-95.0","digit-span","true","0","","<div class = centerbox><div class = center-text>5 Digits</p></div>","none","1000","","","","","","","","","","",""
"","[-1]","","5000","0","stim","poldrack-multi-stim-multi-response","96","488389","0.0-96.0","digit-span","true","0","","","none","","[""<div class = centerbox><div class = digit-span-text>6</div></div>"",""<div class = centerbox><div class = digit-span-text>9</div></div>"",""<div class = centerbox><div class = digit-span-text>3</div></div>"",""<div class = centerbox><div class = digit-span-text>8</div></div>"",""<div class = centerbox><div class = digit-span-text>2</div></div>""]","[-1]","[800,800,800,800,800]","test","6,9,3,8,2","5","","","","",""
"","10672","","10672","500","response","single-stim-button","97","499062","0.0-97.0","digit-span","true","0","","","","10672","","","","test","6,9,3,8,2","5","SubmitButton","2,8,3,9,6","reverse","true",""
"","-1","-1","1000","1000","feedback","poldrack-single-stim","98","500563","0.0-98.0","digit-span","true","0","","<div class = centerbox><div class = center-text><span style=""color:green"">Correct!</span></div></div>","none","1000","","","","","","","","","","",""
"","-1","-1","1000","1000","test_intro","poldrack-single-stim","99","502564","0.0-99.0","digit-span","true","0","","<div class = centerbox><div class = center-text>6 Digits</p></div>","none","1000","","","","","","","","","","",""
"","[-1]","","6000","0","stim","poldrack-multi-stim-multi-response","100","509566","0.0-100.0","digit-span","true","0","","","none","","[""<div class = centerbox><div class = digit-span-text>3</div></div>"",""<div class = centerbox><div class = digit-span-text>9</div></div>"",""<div class = centerbox><div class = digit-span-text>5</div></div>"",""<div class = centerbox><div class = digit-span-text>1</div></div>"",""<div class = centerbox><div class = digit-span-text>7</div></div>"",""<div class = centerbox><div class = digit-span-text>4</div></div>""]","[-1]","[800,800,800,800,800,800]","test","3,9,5,1,7,4","6","","","","",""
"","32679","","32679","500","response","single-stim-button","101","542245","0.0-101.0","digit-span","true","0","","","","32679","","","","test","3,9,5,1,7,4","6","SubmitButton","4,7,1,9,5,3","reverse","false",""
"","-1","-1","1000","1000","feedback","poldrack-single-stim","102","543747","0.0-102.0","digit-span","true","0","","<div class = centerbox><div class = center-text><span style=""color:red"">Incorrect</span></div></div>","none","1000","","","","","","","","","","",""
"","-1","-1","1000","1000","test_intro","poldrack-single-stim","103","545748","0.0-103.0","digit-span","true","0","","<div class = centerbox><div class = center-text>5 Digits</p></div>","none","1000","","","","","","","","","","",""
"","[-1]","","5000","0","stim","poldrack-multi-stim-multi-response","104","551749","0.0-104.0","digit-span","true","0","","","none","","[""<div class = centerbox><div class = digit-span-text>5</div></div>"",""<div class = centerbox><div class = digit-span-text>1</div></div>"",""<div class = centerbox><div class = digit-span-text>6</div></div>"",""<div class = centerbox><div class = digit-span-text>9</div></div>"",""<div class = centerbox><div class = digit-span-text>2</div></div>""]","[-1]","[800,800,800,800,800]","test","5,1,6,9,2","5","","","","",""
"","9680","","9680","500","response","single-stim-button","105","561430","0.0-105.0","digit-span","true","0","","","","9680","","","","test","5,1,6,9,2","5","SubmitButton","5,1,6,9,2","reverse","false",""
"","-1","-1","1000","1000","feedback","poldrack-single-stim","106","562931","0.0-106.0","digit-span","true","0","","<div class = centerbox><div class = center-text><span style=""color:red"">Incorrect</span></div></div>","none","1000","","","","","","","","","","",""
"","-1","-1","1000","1000","test_intro","poldrack-single-stim","107","564932","0.0-107.0","digit-span","true","0","","<div class = centerbox><div class = center-text>5 Digits</p></div>","none","1000","","","","","","","","","","",""
"","[-1]","","5000","0","stim","poldrack-multi-stim-multi-response","108","570935","0.0-108.0","digit-span","true","0","","","none","","[""<div class = centerbox><div class = digit-span-text>9</div></div>"",""<div class = centerbox><div class = digit-span-text>3</div></div>"",""<div class = centerbox><div class = digit-span-text>9</div></div>"",""<div class = centerbox><div class = digit-span-text>1</div></div>"",""<div class = centerbox><div class = digit-span-text>9</div></div>""]","[-1]","[800,800,800,800,800]","test","9,3,9,1,9","5","","","","",""
"","16918","","16918","500","response","single-stim-button","109","587854","0.0-109.0","digit-span","true","0","","","","16918","","","","test","9,3,9,1,9","5","SubmitButton","9,3,1,3,9","reverse","false",""
"","-1","-1","1000","1000","feedback","poldrack-single-stim","110","589355","0.0-110.0","digit-span","true","0","","<div class = centerbox><div class = center-text><span style=""color:red"">Incorrect</span></div></div>","none","1000","","","","","","","","","","",""
"","-1","-1","1000","1000","test_intro","poldrack-single-stim","111","591356","0.0-111.0","digit-span","true","0","","<div class = centerbox><div class = center-text>4 Digits</p></div>","none","1000","","","","","","","","","","",""
"","[-1]","","4000","0","stim","poldrack-multi-stim-multi-response","112","596357","0.0-112.0","digit-span","true","0","","","none","","[""<div class = centerbox><div class = digit-span-text>5</div></div>"",""<div class = centerbox><div class = digit-span-text>2</div></div>"",""<div class = centerbox><div class = digit-span-text>6</div></div>"",""<div class = centerbox><div class = digit-span-text>2</div></div>""]","[-1]","[800,800,800,800]","test","5,2,6,2","4","","","","",""
"","10095","","10095","500","response","single-stim-button","113","606453","0.0-113.0","digit-span","true","0","","","","10095","","","","test","5,2,6,2","4","SubmitButton","2,6,5,9","reverse","false",""
"","-1","-1","1000","1000","feedback","poldrack-single-stim","114","607955","0.0-114.0","digit-span","true","0","","<div class = centerbox><div class = center-text><span style=""color:red"">Incorrect</span></div></div>","none","1000","","","","","","","","","","",""
"","90768","","","","post task questions","survey-text","115","699728","0.0-115.0","digit-span","true","0","","","","","","","","","","","","","","","{""Q0"":""The first task I was shown a series of numbers and was told to repeat the number back in sequence. For the second task I was shown a series of numbers and was told to restate the nubers in reverse order. "",""Q1"":""The second task was much harder after 5 digits it was nearly impossible. ""}"
"<div class = centerbox><p class = center-block-text>Thanks for completing this task!</p><p class = center-block-text>Press <strong>enter</strong> to continue.</p></div>","1944","13","1944","0","end","poldrack-text","116","702673","0.0-116.0","digit-span","true","0","","","","","","","","","","","","","","",""
