"text","rt","key_press","block_duration","timing_post_trial","trial_id","trial_type","trial_index","time_elapsed","internal_node_id","exp_id","full_screen","focus_shifts","view_history","stimulus","possible_responses","stim_duration","stimuli","key_presses","stim_durations","exp_stage","sequence","num_digits","mouse_click","response","condition","correct","responses"
"<div class = centerbox><p class = center-block-text>Welcome to the experiment. This experiment will take less than 10 minutes. Press <strong>enter</strong> to begin.</p></div>","1146","13","1146","0","instruction","poldrack-text","0","1148","0.0-0.0-0.0","digit-span","true","0","","","","","","","","","","","","","","",""
"","45321","","","","instruction","poldrack-instructions","1","46470","0.0-0.0-1.0","digit-span","true","0","[{""page_index"":0,""viewing_time"":45321}]","","","","","","","","","","","","","",""
"","-1","-1","1000","1000","test_intro","poldrack-single-stim","2","48473","0.0-1.0","digit-span","true","0","","<div class = centerbox><div class = center-text>3 Digits</p></div>","none","1000","","","","","","","","","","",""
"","[-1]","","3000","0","stim","poldrack-multi-stim-multi-response","3","52476","0.0-2.0","digit-span","true","0","","","none","","[""<div class = centerbox><div class = digit-span-text>7</div></div>"",""<div class = centerbox><div class = digit-span-text>4</div></div>"",""<div class = centerbox><div class = digit-span-text>7</div></div>""]","[-1]","[800,800,800]","test","7,4,7","3","","","","",""
"","6330","","6330","500","response","single-stim-button","4","58808","0.0-3.0","digit-span","true","0","","","","6330","","","","test","7,4,7","3","SubmitButton","7,4,7","forward","true",""
"","-1","-1","1000","1000","feedback","poldrack-single-stim","5","60311","0.0-4.0","digit-span","true","0","","<div class = centerbox><div class = center-text><span style=""color:green"">Correct!</span></div></div>","none","1000","","","","","","","","","","",""
"","-1","-1","1000","1000","test_intro","poldrack-single-stim","6","62312","0.0-5.0","digit-span","true","0","","<div class = centerbox><div class = center-text>4 Digits</p></div>","none","1000","","","","","","","","","","",""
"","[-1]","","4000","0","stim","poldrack-multi-stim-multi-response","7","67314","0.0-6.0","digit-span","true","0","","","none","","[""<div class = centerbox><div class = digit-span-text>3</div></div>"",""<div class = centerbox><div class = digit-span-text>8</div></div>"",""<div class = centerbox><div class = digit-span-text>3</div></div>"",""<div class = centerbox><div class = digit-span-text>9</div></div>""]","[-1]","[800,800,800,800]","test","3,8,3,9","4","","","","",""
"","5716","","5716","500","response","single-stim-button","8","73032","0.0-7.0","digit-span","true","0","","","","5716","","","","test","3,8,3,9","4","SubmitButton","3,8,3,9","forward","true",""
"","-1","-1","1000","1000","feedback","poldrack-single-stim","9","74534","0.0-8.0","digit-span","true","0","","<div class = centerbox><div class = center-text><span style=""color:green"">Correct!</span></div></div>","none","1000","","","","","","","","","","",""
"","-1","-1","1000","1000","test_intro","poldrack-single-stim","10","76535","0.0-9.0","digit-span","true","0","","<div class = centerbox><div class = center-text>5 Digits</p></div>","none","1000","","","","","","","","","","",""
"","[-1]","","5000","0","stim","poldrack-multi-stim-multi-response","11","82537","0.0-10.0","digit-span","true","0","","","none","","[""<div class = centerbox><div class = digit-span-text>3</div></div>"",""<div class = centerbox><div class = digit-span-text>7</div></div>"",""<div class = centerbox><div class = digit-span-text>3</div></div>"",""<div class = centerbox><div class = digit-span-text>8</div></div>"",""<div class = centerbox><div class = digit-span-text>3</div></div>""]","[-1]","[800,800,800,800,800]","test","3,7,3,8,3","5","","","","",""
"","5070","","5070","500","response","single-stim-button","12","87607","0.0-11.0","digit-span","true","0","","","","5070","","","","test","3,7,3,8,3","5","SubmitButton","3,7,3,8,3","forward","true",""
"","-1","-1","1000","1000","feedback","poldrack-single-stim","13","89109","0.0-12.0","digit-span","true","0","","<div class = centerbox><div class = center-text><span style=""color:green"">Correct!</span></div></div>","none","1000","","","","","","","","","","",""
"","-1","-1","1000","1000","test_intro","poldrack-single-stim","14","91112","0.0-13.0","digit-span","true","0","","<div class = centerbox><div class = center-text>6 Digits</p></div>","none","1000","","","","","","","","","","",""
"","[-1]","","6000","0","stim","poldrack-multi-stim-multi-response","15","98113","0.0-14.0","digit-span","true","0","","","none","","[""<div class = centerbox><div class = digit-span-text>6</div></div>"",""<div class = centerbox><div class = digit-span-text>3</div></div>"",""<div class = centerbox><div class = digit-span-text>7</div></div>"",""<div class = centerbox><div class = digit-span-text>2</div></div>"",""<div class = centerbox><div class = digit-span-text>6</div></div>"",""<div class = centerbox><div class = digit-span-text>1</div></div>""]","[-1]","[800,800,800,800,800,800]","test","6,3,7,2,6,1","6","","","","",""
"","7637","","7637","500","response","single-stim-button","16","105751","0.0-15.0","digit-span","true","0","","","","7637","","","","test","6,3,7,2,6,1","6","SubmitButton","6,3,6,2,6,1","forward","false",""
"","-1","-1","1000","1000","feedback","poldrack-single-stim","17","107254","0.0-16.0","digit-span","true","0","","<div class = centerbox><div class = center-text><span style=""color:red"">Incorrect</span></div></div>","none","1000","","","","","","","","","","",""
"","-1","-1","1000","1000","test_intro","poldrack-single-stim","18","109255","0.0-17.0","digit-span","true","0","","<div class = centerbox><div class = center-text>6 Digits</p></div>","none","1000","","","","","","","","","","",""
"","[-1]","","6000","0","stim","poldrack-multi-stim-multi-response","19","116256","0.0-18.0","digit-span","true","0","","","none","","[""<div class = centerbox><div class = digit-span-text>6</div></div>"",""<div class = centerbox><div class = digit-span-text>3</div></div>"",""<div class = centerbox><div class = digit-span-text>7</div></div>"",""<div class = centerbox><div class = digit-span-text>1</div></div>"",""<div class = centerbox><div class = digit-span-text>9</div></div>"",""<div class = centerbox><div class = digit-span-text>6</div></div>""]","[-1]","[800,800,800,800,800,800]","test","6,3,7,1,9,6","6","","","","",""
"","12936","","12936","500","response","single-stim-button","20","129193","0.0-19.0","digit-span","true","0","","","","12936","","","","test","6,3,7,1,9,6","6","SubmitButton","6,3,7,2,9,1","forward","false",""
"","-1","-1","1000","1000","feedback","poldrack-single-stim","21","130695","0.0-20.0","digit-span","true","0","","<div class = centerbox><div class = center-text><span style=""color:red"">Incorrect</span></div></div>","none","1000","","","","","","","","","","",""
"","-1","-1","1000","1000","test_intro","poldrack-single-stim","22","132696","0.0-21.0","digit-span","true","0","","<div class = centerbox><div class = center-text>5 Digits</p></div>","none","1000","","","","","","","","","","",""
"","[-1]","","5000","0","stim","poldrack-multi-stim-multi-response","23","138698","0.0-22.0","digit-span","true","0","","","none","","[""<div class = centerbox><div class = digit-span-text>9</div></div>"",""<div class = centerbox><div class = digit-span-text>1</div></div>"",""<div class = centerbox><div class = digit-span-text>4</div></div>"",""<div class = centerbox><div class = digit-span-text>8</div></div>"",""<div class = centerbox><div class = digit-span-text>5</div></div>""]","[-1]","[800,800,800,800,800]","test","9,1,4,8,5","5","","","","",""
"","5718","","5718","500","response","single-stim-button","24","144418","0.0-23.0","digit-span","true","0","","","","5718","","","","test","9,1,4,8,5","5","SubmitButton","9,4,1,8,5","forward","false",""
"","-1","-1","1000","1000","feedback","poldrack-single-stim","25","145919","0.0-24.0","digit-span","true","0","","<div class = centerbox><div class = center-text><span style=""color:red"">Incorrect</span></div></div>","none","1000","","","","","","","","","","",""
"","-1","-1","1000","1000","test_intro","poldrack-single-stim","26","147921","0.0-25.0","digit-span","true","0","","<div class = centerbox><div class = center-text>5 Digits</p></div>","none","1000","","","","","","","","","","",""
"","[-1]","","5000","0","stim","poldrack-multi-stim-multi-response","27","153921","0.0-26.0","digit-span","true","0","","","none","","[""<div class = centerbox><div class = digit-span-text>8</div></div>"",""<div class = centerbox><div class = digit-span-text>4</div></div>"",""<div class = centerbox><div class = digit-span-text>9</div></div>"",""<div class = centerbox><div class = digit-span-text>4</div></div>"",""<div class = centerbox><div class = digit-span-text>9</div></div>""]","[-1]","[800,800,800,800,800]","test","8,4,9,4,9","5","","","","",""
"","5687","","5687","500","response","single-stim-button","28","159609","0.0-27.0","digit-span","true","0","","","","5687","","","","test","8,4,9,4,9","5","SubmitButton","8,4,9,4,9","forward","true",""
"","-1","-1","1000","1000","feedback","poldrack-single-stim","29","161110","0.0-28.0","digit-span","true","0","","<div class = centerbox><div class = center-text><span style=""color:green"">Correct!</span></div></div>","none","1000","","","","","","","","","","",""
"","-1","-1","1000","1000","test_intro","poldrack-single-stim","30","163112","0.0-29.0","digit-span","true","0","","<div class = centerbox><div class = center-text>6 Digits</p></div>","none","1000","","","","","","","","","","",""
"","[-1]","","6000","0","stim","poldrack-multi-stim-multi-response","31","170113","0.0-30.0","digit-span","true","0","","","none","","[""<div class = centerbox><div class = digit-span-text>4</div></div>"",""<div class = centerbox><div class = digit-span-text>7</div></div>"",""<div class = centerbox><div class = digit-span-text>2</div></div>"",""<div class = centerbox><div class = digit-span-text>9</div></div>"",""<div class = centerbox><div class = digit-span-text>4</div></div>"",""<div class = centerbox><div class = digit-span-text>1</div></div>""]","[-1]","[800,800,800,800,800,800]","test","4,7,2,9,4,1","6","","","","",""
"","6903","","6903","500","response","single-stim-button","32","177017","0.0-31.0","digit-span","true","0","","","","6903","","","","test","4,7,2,9,4,1","6","SubmitButton","4,7,2,9,4,1","forward","true",""
"","-1","-1","1000","1000","feedback","poldrack-single-stim","33","178519","0.0-32.0","digit-span","true","0","","<div class = centerbox><div class = center-text><span style=""color:green"">Correct!</span></div></div>","none","1000","","","","","","","","","","",""
"","-1","-1","1000","1000","test_intro","poldrack-single-stim","34","180520","0.0-33.0","digit-span","true","0","","<div class = centerbox><div class = center-text>7 Digits</p></div>","none","1000","","","","","","","","","","",""
"","[-1]","","7000","0","stim","poldrack-multi-stim-multi-response","35","188522","0.0-34.0","digit-span","true","0","","","none","","[""<div class = centerbox><div class = digit-span-text>9</div></div>"",""<div class = centerbox><div class = digit-span-text>3</div></div>"",""<div class = centerbox><div class = digit-span-text>6</div></div>"",""<div class = centerbox><div class = digit-span-text>9</div></div>"",""<div class = centerbox><div class = digit-span-text>3</div></div>"",""<div class = centerbox><div class = digit-span-text>7</div></div>"",""<div class = centerbox><div class = digit-span-text>2</div></div>""]","[-1]","[800,800,800,800,800,800,800]","test","9,3,6,9,3,7,2","7","","","","",""
"","33127","","33127","500","response","single-stim-button","36","221649","0.0-35.0","digit-span","true","0","","","","33127","","","","test","9,3,6,9,3,7,2","7","SubmitButton","9,3,6,7,6,1","forward","false",""
"","-1","-1","1000","1000","feedback","poldrack-single-stim","37","223152","0.0-36.0","digit-span","true","0","","<div class = centerbox><div class = center-text><span style=""color:red"">Incorrect</span></div></div>","none","1000","","","","","","","","","","",""
"","-1","-1","1000","1000","test_intro","poldrack-single-stim","38","225153","0.0-37.0","digit-span","true","0","","<div class = centerbox><div class = center-text>6 Digits</p></div>","none","1000","","","","","","","","","","",""
"","[-1]","","6000","0","stim","poldrack-multi-stim-multi-response","39","232155","0.0-38.0","digit-span","true","0","","","none","","[""<div class = centerbox><div class = digit-span-text>4</div></div>"",""<div class = centerbox><div class = digit-span-text>9</div></div>"",""<div class = centerbox><div class = digit-span-text>2</div></div>"",""<div class = centerbox><div class = digit-span-text>6</div></div>"",""<div class = centerbox><div class = digit-span-text>1</div></div>"",""<div class = centerbox><div class = digit-span-text>5</div></div>""]","[-1]","[800,800,800,800,800,800]","test","4,9,2,6,1,5","6","","","","",""
"","8726","","8726","500","response","single-stim-button","40","240882","0.0-39.0","digit-span","true","0","","","","8726","","","","test","4,9,2,6,1,5","6","SubmitButton","4,9,2,6,3,1","forward","false",""
"","-1","-1","1000","1000","feedback","poldrack-single-stim","41","242383","0.0-40.0","digit-span","true","0","","<div class = centerbox><div class = center-text><span style=""color:red"">Incorrect</span></div></div>","none","1000","","","","","","","","","","",""
"","-1","-1","1000","1000","test_intro","poldrack-single-stim","42","244384","0.0-41.0","digit-span","true","0","","<div class = centerbox><div class = center-text>6 Digits</p></div>","none","1000","","","","","","","","","","",""
"","[-1]","","6000","0","stim","poldrack-multi-stim-multi-response","43","251386","0.0-42.0","digit-span","true","0","","","none","","[""<div class = centerbox><div class = digit-span-text>4</div></div>"",""<div class = centerbox><div class = digit-span-text>7</div></div>"",""<div class = centerbox><div class = digit-span-text>4</div></div>"",""<div class = centerbox><div class = digit-span-text>1</div></div>"",""<div class = centerbox><div class = digit-span-text>4</div></div>"",""<div class = centerbox><div class = digit-span-text>7</div></div>""]","[-1]","[800,800,800,800,800,800]","test","4,7,4,1,4,7","6","","","","",""
"","16360","","16360","500","response","single-stim-button","44","267746","0.0-43.0","digit-span","true","0","","","","16360","","","","test","4,7,4,1,4,7","6","SubmitButton","4,7,4,1,4,7","forward","true",""
"","-1","-1","1000","1000","feedback","poldrack-single-stim","45","269248","0.0-44.0","digit-span","true","0","","<div class = centerbox><div class = center-text><span style=""color:green"">Correct!</span></div></div>","none","1000","","","","","","","","","","",""
"","-1","-1","1000","1000","test_intro","poldrack-single-stim","46","271249","0.0-45.0","digit-span","true","0","","<div class = centerbox><div class = center-text>7 Digits</p></div>","none","1000","","","","","","","","","","",""
"","[-1]","","7000","0","stim","poldrack-multi-stim-multi-response","47","279251","0.0-46.0","digit-span","true","0","","","none","","[""<div class = centerbox><div class = digit-span-text>3</div></div>"",""<div class = centerbox><div class = digit-span-text>6</div></div>"",""<div class = centerbox><div class = digit-span-text>9</div></div>"",""<div class = centerbox><div class = digit-span-text>2</div></div>"",""<div class = centerbox><div class = digit-span-text>7</div></div>"",""<div class = centerbox><div class = digit-span-text>2</div></div>"",""<div class = centerbox><div class = digit-span-text>5</div></div>""]","[-1]","[800,800,800,800,800,800,800]","test","3,6,9,2,7,2,5","7","","","","",""
"","11191","","11191","500","response","single-stim-button","48","290444","0.0-47.0","digit-span","true","0","","","","11191","","","","test","3,6,9,2,7,2,5","7","SubmitButton","3,6,9,2,7,4,5","forward","false",""
"","-1","-1","1000","1000","feedback","poldrack-single-stim","49","291945","0.0-48.0","digit-span","true","0","","<div class = centerbox><div class = center-text><span style=""color:red"">Incorrect</span></div></div>","none","1000","","","","","","","","","","",""
"","-1","-1","1000","1000","test_intro","poldrack-single-stim","50","293946","0.0-49.0","digit-span","true","0","","<div class = centerbox><div class = center-text>6 Digits</p></div>","none","1000","","","","","","","","","","",""
"","[-1]","","6000","0","stim","poldrack-multi-stim-multi-response","51","300948","0.0-50.0","digit-span","true","0","","","none","","[""<div class = centerbox><div class = digit-span-text>4</div></div>"",""<div class = centerbox><div class = digit-span-text>7</div></div>"",""<div class = centerbox><div class = digit-span-text>3</div></div>"",""<div class = centerbox><div class = digit-span-text>7</div></div>"",""<div class = centerbox><div class = digit-span-text>4</div></div>"",""<div class = centerbox><div class = digit-span-text>1</div></div>""]","[-1]","[800,800,800,800,800,800]","test","4,7,3,7,4,1","6","","","","",""
"","6553","","6553","500","response","single-stim-button","52","307502","0.0-51.0","digit-span","true","0","","","","6553","","","","test","4,7,3,7,4,1","6","SubmitButton","4,7,3,4,2,1","forward","false",""
"","-1","-1","1000","1000","feedback","poldrack-single-stim","53","309004","0.0-52.0","digit-span","true","0","","<div class = centerbox><div class = center-text><span style=""color:red"">Incorrect</span></div></div>","none","1000","","","","","","","","","","",""
"","-1","-1","1000","1000","test_intro","poldrack-single-stim","54","311005","0.0-53.0","digit-span","true","0","","<div class = centerbox><div class = center-text>6 Digits</p></div>","none","1000","","","","","","","","","","",""
"","[-1]","","6000","0","stim","poldrack-multi-stim-multi-response","55","318006","0.0-54.0","digit-span","true","0","","","none","","[""<div class = centerbox><div class = digit-span-text>9</div></div>"",""<div class = centerbox><div class = digit-span-text>2</div></div>"",""<div class = centerbox><div class = digit-span-text>8</div></div>"",""<div class = centerbox><div class = digit-span-text>1</div></div>"",""<div class = centerbox><div class = digit-span-text>8</div></div>"",""<div class = centerbox><div class = digit-span-text>3</div></div>""]","[-1]","[800,800,800,800,800,800]","test","9,2,8,1,8,3","6","","","","",""
"","13285","","13285","500","response","single-stim-button","56","331292","0.0-55.0","digit-span","true","0","","","","13285","","","","test","9,2,8,1,8,3","6","SubmitButton","9,4,2,4,7,8","forward","false",""
"","-1","-1","1000","1000","feedback","poldrack-single-stim","57","332794","0.0-56.0","digit-span","true","0","","<div class = centerbox><div class = center-text><span style=""color:red"">Incorrect</span></div></div>","none","1000","","","","","","","","","","",""
"<div class = centerbox><p class = block-text>In these next trials, instead of reporting back the sequence you just saw, report the <strong>reverse</strong> of that sequence. So the last item should be first in your response, the second to last should be the second in your response, etc...</p><p class = block-text>Press <strong>enter</strong> to begin.</p></div>","18535","13","18535","1000","start_reverse","poldrack-text","58","352329","0.0-58.0","digit-span","true","0","","","","","","","","","","","","","","",""
"","-1","-1","1000","1000","test_intro","poldrack-single-stim","59","354331","0.0-59.0","digit-span","true","0","","<div class = centerbox><div class = center-text>3 Digits</p></div>","none","1000","","","","","","","","","","",""
"","[-1]","","3000","0","stim","poldrack-multi-stim-multi-response","60","358333","0.0-60.0","digit-span","true","0","","","none","","[""<div class = centerbox><div class = digit-span-text>7</div></div>"",""<div class = centerbox><div class = digit-span-text>3</div></div>"",""<div class = centerbox><div class = digit-span-text>6</div></div>""]","[-1]","[800,800,800]","test","7,3,6","3","","","","",""
"","3703","","3703","500","response","single-stim-button","61","362036","0.0-61.0","digit-span","true","0","","","","3703","","","","test","7,3,6","3","SubmitButton","6,3,7","reverse","true",""
"","-1","-1","1000","1000","feedback","poldrack-single-stim","62","363538","0.0-62.0","digit-span","true","0","","<div class = centerbox><div class = center-text><span style=""color:green"">Correct!</span></div></div>","none","1000","","","","","","","","","","",""
"","-1","-1","1000","1000","test_intro","poldrack-single-stim","63","365539","0.0-63.0","digit-span","true","0","","<div class = centerbox><div class = center-text>4 Digits</p></div>","none","1000","","","","","","","","","","",""
"","[-1]","","4000","0","stim","poldrack-multi-stim-multi-response","64","370541","0.0-64.0","digit-span","true","0","","","none","","[""<div class = centerbox><div class = digit-span-text>8</div></div>"",""<div class = centerbox><div class = digit-span-text>5</div></div>"",""<div class = centerbox><div class = digit-span-text>1</div></div>"",""<div class = centerbox><div class = digit-span-text>8</div></div>""]","[-1]","[800,800,800,800]","test","8,5,1,8","4","","","","",""
"","6583","","6583","500","response","single-stim-button","65","377124","0.0-65.0","digit-span","true","0","","","","6583","","","","test","8,5,1,8","4","SubmitButton","8,1,5,8","reverse","true",""
"","-1","-1","1000","1000","feedback","poldrack-single-stim","66","378626","0.0-66.0","digit-span","true","0","","<div class = centerbox><div class = center-text><span style=""color:green"">Correct!</span></div></div>","none","1000","","","","","","","","","","",""
"","-1","-1","1000","1000","test_intro","poldrack-single-stim","67","380627","0.0-67.0","digit-span","true","0","","<div class = centerbox><div class = center-text>5 Digits</p></div>","none","1000","","","","","","","","","","",""
"","[-1]","","5000","0","stim","poldrack-multi-stim-multi-response","68","386628","0.0-68.0","digit-span","true","0","","","none","","[""<div class = centerbox><div class = digit-span-text>3</div></div>"",""<div class = centerbox><div class = digit-span-text>8</div></div>"",""<div class = centerbox><div class = digit-span-text>3</div></div>"",""<div class = centerbox><div class = digit-span-text>9</div></div>"",""<div class = centerbox><div class = digit-span-text>4</div></div>""]","[-1]","[800,800,800,800,800]","test","3,8,3,9,4","5","","","","",""
"","4552","","4552","500","response","single-stim-button","69","391180","0.0-69.0","digit-span","true","0","","","","4552","","","","test","3,8,3,9,4","5","SubmitButton","4,9,3,8,3","reverse","true",""
"","-1","-1","1000","1000","feedback","poldrack-single-stim","70","392682","0.0-70.0","digit-span","true","0","","<div class = centerbox><div class = center-text><span style=""color:green"">Correct!</span></div></div>","none","1000","","","","","","","","","","",""
"","-1","-1","1000","1000","test_intro","poldrack-single-stim","71","394683","0.0-71.0","digit-span","true","0","","<div class = centerbox><div class = center-text>6 Digits</p></div>","none","1000","","","","","","","","","","",""
"","[-1]","","6000","0","stim","poldrack-multi-stim-multi-response","72","401684","0.0-72.0","digit-span","true","0","","","none","","[""<div class = centerbox><div class = digit-span-text>3</div></div>"",""<div class = centerbox><div class = digit-span-text>7</div></div>"",""<div class = centerbox><div class = digit-span-text>3</div></div>"",""<div class = centerbox><div class = digit-span-text>7</div></div>"",""<div class = centerbox><div class = digit-span-text>1</div></div>"",""<div class = centerbox><div class = digit-span-text>5</div></div>""]","[-1]","[800,800,800,800,800,800]","test","3,7,3,7,1,5","6","","","","",""
"","9934","","9934","500","response","single-stim-button","73","411620","0.0-73.0","digit-span","true","0","","","","9934","","","","test","3,7,3,7,1,5","6","SubmitButton","5,1,7,3,7,3","reverse","true",""
"","-1","-1","1000","1000","feedback","poldrack-single-stim","74","413123","0.0-74.0","digit-span","true","0","","<div class = centerbox><div class = center-text><span style=""color:green"">Correct!</span></div></div>","none","1000","","","","","","","","","","",""
"","-1","-1","1000","1000","test_intro","poldrack-single-stim","75","415124","0.0-75.0","digit-span","true","0","","<div class = centerbox><div class = center-text>7 Digits</p></div>","none","1000","","","","","","","","","","",""
"","[-1]","","7000","0","stim","poldrack-multi-stim-multi-response","76","423124","0.0-76.0","digit-span","true","0","","","none","","[""<div class = centerbox><div class = digit-span-text>9</div></div>"",""<div class = centerbox><div class = digit-span-text>1</div></div>"",""<div class = centerbox><div class = digit-span-text>8</div></div>"",""<div class = centerbox><div class = digit-span-text>1</div></div>"",""<div class = centerbox><div class = digit-span-text>5</div></div>"",""<div class = centerbox><div class = digit-span-text>1</div></div>"",""<div class = centerbox><div class = digit-span-text>4</div></div>""]","[-1]","[800,800,800,800,800,800,800]","test","9,1,8,1,5,1,4","7","","","","",""
"","37728","","37728","500","response","single-stim-button","77","460853","0.0-77.0","digit-span","true","0","","","","37728","","","","test","9,1,8,1,5,1,4","7","SubmitButton","4,1,5,7,8,1,9","reverse","false",""
"","-1","-1","1000","1000","feedback","poldrack-single-stim","78","462355","0.0-78.0","digit-span","true","0","","<div class = centerbox><div class = center-text><span style=""color:red"">Incorrect</span></div></div>","none","1000","","","","","","","","","","",""
"","-1","-1","1000","1000","test_intro","poldrack-single-stim","79","464356","0.0-79.0","digit-span","true","0","","<div class = centerbox><div class = center-text>7 Digits</p></div>","none","1000","","","","","","","","","","",""
"","[-1]","","7000","0","stim","poldrack-multi-stim-multi-response","80","472359","0.0-80.0","digit-span","true","0","","","none","","[""<div class = centerbox><div class = digit-span-text>9</div></div>"",""<div class = centerbox><div class = digit-span-text>1</div></div>"",""<div class = centerbox><div class = digit-span-text>9</div></div>"",""<div class = centerbox><div class = digit-span-text>6</div></div>"",""<div class = centerbox><div class = digit-span-text>9</div></div>"",""<div class = centerbox><div class = digit-span-text>5</div></div>"",""<div class = centerbox><div class = digit-span-text>9</div></div>""]","[-1]","[800,800,800,800,800,800,800]","test","9,1,9,6,9,5,9","7","","","","",""
"","10095","","10095","500","response","single-stim-button","81","482454","0.0-81.0","digit-span","true","0","","","","10095","","","","test","9,1,9,6,9,5,9","7","SubmitButton","9,5,9,6,9,1,9","reverse","true",""
"","-1","-1","1000","1000","feedback","poldrack-single-stim","82","483956","0.0-82.0","digit-span","true","0","","<div class = centerbox><div class = center-text><span style=""color:green"">Correct!</span></div></div>","none","1000","","","","","","","","","","",""
"","-1","-1","1000","1000","test_intro","poldrack-single-stim","83","485957","0.0-83.0","digit-span","true","0","","<div class = centerbox><div class = center-text>8 Digits</p></div>","none","1000","","","","","","","","","","",""
"","[-1]","","8000","0","stim","poldrack-multi-stim-multi-response","84","494959","0.0-84.0","digit-span","true","0","","","none","","[""<div class = centerbox><div class = digit-span-text>4</div></div>"",""<div class = centerbox><div class = digit-span-text>8</div></div>"",""<div class = centerbox><div class = digit-span-text>4</div></div>"",""<div class = centerbox><div class = digit-span-text>7</div></div>"",""<div class = centerbox><div class = digit-span-text>1</div></div>"",""<div class = centerbox><div class = digit-span-text>6</div></div>"",""<div class = centerbox><div class = digit-span-text>9</div></div>"",""<div class = centerbox><div class = digit-span-text>5</div></div>""]","[-1]","[800,800,800,800,800,800,800,800]","test","4,8,4,7,1,6,9,5","8","","","","",""
"","40598","","40598","500","response","single-stim-button","85","535558","0.0-85.0","digit-span","true","0","","","","40598","","","","test","4,8,4,7,1,6,9,5","8","SubmitButton","5,9,6,1,5,4,7,4","reverse","false",""
"","-1","-1","1000","1000","feedback","poldrack-single-stim","86","537060","0.0-86.0","digit-span","true","0","","<div class = centerbox><div class = center-text><span style=""color:red"">Incorrect</span></div></div>","none","1000","","","","","","","","","","",""
"","-1","-1","1000","1000","test_intro","poldrack-single-stim","87","539060","0.0-87.0","digit-span","true","0","","<div class = centerbox><div class = center-text>7 Digits</p></div>","none","1000","","","","","","","","","","",""
"","[-1]","","7000","0","stim","poldrack-multi-stim-multi-response","88","547063","0.0-88.0","digit-span","true","0","","","none","","[""<div class = centerbox><div class = digit-span-text>4</div></div>"",""<div class = centerbox><div class = digit-span-text>7</div></div>"",""<div class = centerbox><div class = digit-span-text>1</div></div>"",""<div class = centerbox><div class = digit-span-text>8</div></div>"",""<div class = centerbox><div class = digit-span-text>3</div></div>"",""<div class = centerbox><div class = digit-span-text>7</div></div>"",""<div class = centerbox><div class = digit-span-text>1</div></div>""]","[-1]","[800,800,800,800,800,800,800]","test","4,7,1,8,3,7,1","7","","","","",""
"","9264","","9264","500","response","single-stim-button","89","556327","0.0-89.0","digit-span","true","0","","","","9264","","","","test","4,7,1,8,3,7,1","7","SubmitButton","1,7,3,8,4,6,1","reverse","false",""
"","-1","-1","1000","1000","feedback","poldrack-single-stim","90","557829","0.0-90.0","digit-span","true","0","","<div class = centerbox><div class = center-text><span style=""color:red"">Incorrect</span></div></div>","none","1000","","","","","","","","","","",""
"","-1","-1","1000","1000","test_intro","poldrack-single-stim","91","559830","0.0-91.0","digit-span","true","0","","<div class = centerbox><div class = center-text>7 Digits</p></div>","none","1000","","","","","","","","","","",""
"","[-1]","","7000","0","stim","poldrack-multi-stim-multi-response","92","567831","0.0-92.0","digit-span","true","0","","","none","","[""<div class = centerbox><div class = digit-span-text>9</div></div>"",""<div class = centerbox><div class = digit-span-text>2</div></div>"",""<div class = centerbox><div class = digit-span-text>8</div></div>"",""<div class = centerbox><div class = digit-span-text>3</div></div>"",""<div class = centerbox><div class = digit-span-text>9</div></div>"",""<div class = centerbox><div class = digit-span-text>3</div></div>"",""<div class = centerbox><div class = digit-span-text>8</div></div>""]","[-1]","[800,800,800,800,800,800,800]","test","9,2,8,3,9,3,8","7","","","","",""
"","30598","","30598","500","response","single-stim-button","93","598431","0.0-93.0","digit-span","true","0","","","","30598","","","","test","9,2,8,3,9,3,8","7","SubmitButton","8,3,9,3,9,3,9","reverse","false",""
"","-1","-1","1000","1000","feedback","poldrack-single-stim","94","599932","0.0-94.0","digit-span","true","0","","<div class = centerbox><div class = center-text><span style=""color:red"">Incorrect</span></div></div>","none","1000","","","","","","","","","","",""
"","-1","-1","1000","1000","test_intro","poldrack-single-stim","95","601933","0.0-95.0","digit-span","true","0","","<div class = centerbox><div class = center-text>6 Digits</p></div>","none","1000","","","","","","","","","","",""
"","[-1]","","6000","0","stim","poldrack-multi-stim-multi-response","96","608938","0.0-96.0","digit-span","true","0","","","none","","[""<div class = centerbox><div class = digit-span-text>5</div></div>"",""<div class = centerbox><div class = digit-span-text>9</div></div>"",""<div class = centerbox><div class = digit-span-text>6</div></div>"",""<div class = centerbox><div class = digit-span-text>9</div></div>"",""<div class = centerbox><div class = digit-span-text>4</div></div>"",""<div class = centerbox><div class = digit-span-text>9</div></div>""]","[-1]","[800,800,800,800,800,800]","test","5,9,6,9,4,9","6","","","","",""
"","6678","","6678","500","response","single-stim-button","97","615617","0.0-97.0","digit-span","true","0","","","","6678","","","","test","5,9,6,9,4,9","6","SubmitButton","9,4,9,3,6,3","reverse","false",""
"","-1","-1","1000","1000","feedback","poldrack-single-stim","98","617119","0.0-98.0","digit-span","true","0","","<div class = centerbox><div class = center-text><span style=""color:red"">Incorrect</span></div></div>","none","1000","","","","","","","","","","",""
"","-1","-1","1000","1000","test_intro","poldrack-single-stim","99","619120","0.0-99.0","digit-span","true","0","","<div class = centerbox><div class = center-text>6 Digits</p></div>","none","1000","","","","","","","","","","",""
"","[-1]","","6000","0","stim","poldrack-multi-stim-multi-response","100","626122","0.0-100.0","digit-span","true","0","","","none","","[""<div class = centerbox><div class = digit-span-text>8</div></div>"",""<div class = centerbox><div class = digit-span-text>3</div></div>"",""<div class = centerbox><div class = digit-span-text>6</div></div>"",""<div class = centerbox><div class = digit-span-text>1</div></div>"",""<div class = centerbox><div class = digit-span-text>6</div></div>"",""<div class = centerbox><div class = digit-span-text>3</div></div>""]","[-1]","[800,800,800,800,800,800]","test","8,3,6,1,6,3","6","","","","",""
"","8926","","8926","500","response","single-stim-button","101","635048","0.0-101.0","digit-span","true","0","","","","8926","","","","test","8,3,6,1,6,3","6","SubmitButton","3,6,1,3,8,6","reverse","false",""
"","-1","-1","1000","1000","feedback","poldrack-single-stim","102","636550","0.0-102.0","digit-span","true","0","","<div class = centerbox><div class = center-text><span style=""color:red"">Incorrect</span></div></div>","none","1000","","","","","","","","","","",""
"","-1","-1","1000","1000","test_intro","poldrack-single-stim","103","638550","0.0-103.0","digit-span","true","0","","<div class = centerbox><div class = center-text>5 Digits</p></div>","none","1000","","","","","","","","","","",""
"","[-1]","","5000","0","stim","poldrack-multi-stim-multi-response","104","644552","0.0-104.0","digit-span","true","0","","","none","","[""<div class = centerbox><div class = digit-span-text>5</div></div>"",""<div class = centerbox><div class = digit-span-text>2</div></div>"",""<div class = centerbox><div class = digit-span-text>8</div></div>"",""<div class = centerbox><div class = digit-span-text>5</div></div>"",""<div class = centerbox><div class = digit-span-text>2</div></div>""]","[-1]","[800,800,800,800,800]","test","5,2,8,5,2","5","","","","",""
"","5057","","5057","500","response","single-stim-button","105","649609","0.0-105.0","digit-span","true","0","","","","5057","","","","test","5,2,8,5,2","5","SubmitButton","2,5,8,3,2","reverse","false",""
"","-1","-1","1000","1000","feedback","poldrack-single-stim","106","651110","0.0-106.0","digit-span","true","0","","<div class = centerbox><div class = center-text><span style=""color:red"">Incorrect</span></div></div>","none","1000","","","","","","","","","","",""
"","-1","-1","1000","1000","test_intro","poldrack-single-stim","107","653112","0.0-107.0","digit-span","true","0","","<div class = centerbox><div class = center-text>5 Digits</p></div>","none","1000","","","","","","","","","","",""
"","[-1]","","5000","0","stim","poldrack-multi-stim-multi-response","108","659114","0.0-108.0","digit-span","true","0","","","none","","[""<div class = centerbox><div class = digit-span-text>9</div></div>"",""<div class = centerbox><div class = digit-span-text>5</div></div>"",""<div class = centerbox><div class = digit-span-text>1</div></div>"",""<div class = centerbox><div class = digit-span-text>6</div></div>"",""<div class = centerbox><div class = digit-span-text>3</div></div>""]","[-1]","[800,800,800,800,800]","test","9,5,1,6,3","5","","","","",""
"","10168","","10168","500","response","single-stim-button","109","669282","0.0-109.0","digit-span","true","0","","","","10168","","","","test","9,5,1,6,3","5","SubmitButton","3,6,5,1,3","reverse","false",""
"","-1","-1","1000","1000","feedback","poldrack-single-stim","110","670783","0.0-110.0","digit-span","true","0","","<div class = centerbox><div class = center-text><span style=""color:red"">Incorrect</span></div></div>","none","1000","","","","","","","","","","",""
"","-1","-1","1000","1000","test_intro","poldrack-single-stim","111","672784","0.0-111.0","digit-span","true","0","","<div class = centerbox><div class = center-text>4 Digits</p></div>","none","1000","","","","","","","","","","",""
"","[-1]","","4000","0","stim","poldrack-multi-stim-multi-response","112","677787","0.0-112.0","digit-span","true","0","","","none","","[""<div class = centerbox><div class = digit-span-text>3</div></div>"",""<div class = centerbox><div class = digit-span-text>7</div></div>"",""<div class = centerbox><div class = digit-span-text>3</div></div>"",""<div class = centerbox><div class = digit-span-text>7</div></div>""]","[-1]","[800,800,800,800]","test","3,7,3,7","4","","","","",""
"","5078","","5078","500","response","single-stim-button","113","682865","0.0-113.0","digit-span","true","0","","","","5078","","","","test","3,7,3,7","4","SubmitButton","7,3,7,3","reverse","true",""
"","-1","-1","1000","1000","feedback","poldrack-single-stim","114","684367","0.0-114.0","digit-span","true","0","","<div class = centerbox><div class = center-text><span style=""color:green"">Correct!</span></div></div>","none","1000","","","","","","","","","","",""
"","59563","","","","post task questions","survey-text","115","744933","0.0-115.0","digit-span","true","0","","","","","","","","","","","","","","","{""Q0"":""I was asked to memorize the numbers on the screen in the order they appeared and in a reverse order"",""Q1"":""The reverse was hard to accomplish. ""}"
"<div class = centerbox><p class = center-block-text>Thanks for completing this task!</p><p class = center-block-text>Press <strong>enter</strong> to continue.</p></div>","2464","13","2464","0","end","poldrack-text","116","748399","0.0-116.0","digit-span","true","0","","","","","","","","","","","","","","",""
