"text","rt","key_press","block_duration","timing_post_trial","exp_id","trial_type","trial_index","time_elapsed","internal_node_id","full_screen","focus_shifts","view_history","exp_stage","trial_id","qnum","page_num","trial_num","stim_question","stim_response","score_response","response_range","times_viewed"
"<div class = centerbox><p class = center-block-text>Welcome to this survey.<br><br> Press <strong>enter</strong> to begin.</p></div>","1285","13","1285","0","ravens","poldrack-text","0","1286","0.0-0.0-0.0","true","0","","","","","","","","","","",""
"","56584","","","","ravens","poldrack-instructions","1","57871","0.0-0.0-1.0","true","0","[{""page_index"":0,""viewing_time"":1240},{""page_index"":1,""viewing_time"":51496},{""page_index"":2,""viewing_time"":3848}]","","","","","","","","","",""
"<div class = centerbox><p class = center-block-text>Starting with first example trial.  Press <strong> Enter </strong> to continue.</p></div>","1599","13","1599","0","ravens","poldrack-text","2","60471","0.0-1.0-0.0","true","0","","practice","feedback","","","","","","","",""
"","22314","","","","ravens","poldrack-survey-multi-choice","3","82787","0.0-1.0-1.0","","","","","","1","1","0","<div><img src = ""images/practice/practice_top_1.jpg""</img></div><div><img src = ""images/practice/practice_bottom_1.jpg"" id=""bottom_img""</img></div>","C","1","1,8","1"
"","22316","","","","ravens","poldrack-survey-multi-choice","3","82788","0.0-1.0-1.0","true","0","[{""page_index"":0,""viewing_time"":22314}]","","","","","","","","","",""
"<div class = centerbox><p class = center-block-text>That is correct. Please press <strong>Enter</strong> to continue.</p></div>","1578","13","1578","0","ravens","poldrack-text","4","85369","0.0-2.0","true","0","","practice","feedback","","","","","","","",""
"<div class = centerbox><p class = center-block-text>That is correct. Please press <strong>Enter</strong> to continue.</p></div>","3424","13","3424","0","ravens","poldrack-text","5","88793","0.0-3.0-0.0","true","0","","practice","feedback","","","","","","","",""
"","18919","","","","ravens","poldrack-survey-multi-choice","6","107713","0.0-3.0-1.0","","","","","","1","1","0","<div><img src = ""images/practice/practice_top_2.jpg""</img></div><div><img src = ""images/practice/practice_bottom_2.jpg"" id=""bottom_img""</img></div>","E","0","1,8","1"
"","18920","","","","ravens","poldrack-survey-multi-choice","6","107713","0.0-3.0-1.0","true","0","[{""page_index"":0,""viewing_time"":18919}]","","","","","","","","","",""
"<div class = centerbox><p class = center-block-text>That is incorrect. Please press <strong>Enter</strong> to try again.</p></div>","1574","13","1574","0","ravens","poldrack-text","7","110289","0.0-3.1-0.1","true","0","","practice","feedback","","","","","","","",""
"","13648","","","","ravens","poldrack-survey-multi-choice","8","123937","0.0-3.1-1.1","","","","","","1","1","0","<div><img src = ""images/practice/practice_top_2.jpg""</img></div><div><img src = ""images/practice/practice_bottom_2.jpg"" id=""bottom_img""</img></div>","G","0","1,8","1"
"","13649","","","","ravens","poldrack-survey-multi-choice","8","123938","0.0-3.1-1.1","true","0","[{""page_index"":0,""viewing_time"":13648}]","","","","","","","","","",""
"<div class = centerbox><p class = center-block-text>That is incorrect. Please press <strong>Enter</strong> to try again.</p></div>","1805","13","1805","0","ravens","poldrack-text","9","126744","0.0-3.2-0.2","true","0","","practice","feedback","","","","","","","",""
"","17122","","","","ravens","poldrack-survey-multi-choice","10","143866","0.0-3.2-1.2","","","","","","1","1","0","<div><img src = ""images/practice/practice_top_2.jpg""</img></div><div><img src = ""images/practice/practice_bottom_2.jpg"" id=""bottom_img""</img></div>","A","0","1,8","1"
"","17123","","","","ravens","poldrack-survey-multi-choice","10","143867","0.0-3.2-1.2","true","0","[{""page_index"":0,""viewing_time"":17122}]","","","","","","","","","",""
"<div class = centerbox><p class = center-block-text>That is incorrect. Please press <strong>Enter</strong> to try again.</p></div>","1182","13","1182","0","ravens","poldrack-text","11","146050","0.0-3.3-0.3","true","0","","practice","feedback","","","","","","","",""
"","5167","","","","ravens","poldrack-survey-multi-choice","12","151217","0.0-3.3-1.3","","","","","","1","1","0","<div><img src = ""images/practice/practice_top_2.jpg""</img></div><div><img src = ""images/practice/practice_bottom_2.jpg"" id=""bottom_img""</img></div>","F","1","1,8","1"
"","5167","","","","ravens","poldrack-survey-multi-choice","12","151218","0.0-3.3-1.3","true","0","[{""page_index"":0,""viewing_time"":5167}]","","","","","","","","","",""
"<div class = centerbox><p class = center-block-text>That is correct. Please press <strong>Enter</strong> to continue.</p></div>","1678","13","1678","0","ravens","poldrack-text","13","153898","0.0-4.0","true","0","","practice","feedback","","","","","","","",""
"<div class = centerbox><p class = center-block-text>You are now ready to begin the test trials.<br><br>Press <strong> Enter </strong> to continue.</p></div>","2366","13","2366","0","ravens","poldrack-text","14","156265","0.0-5.0","true","0","","","","","","","","","","",""
"","19824","","","","ravens","poldrack-survey-multi-choice","15","564982","0.0-6.0","","","","","","1","1","0","<div><img src = ""images/top_1.jpg""</img></div><div><img src = ""images/bottom_1.jpg"" id=""bottom_img""</img></div>","F","0","1,8","1"
"","27928","","","","ravens","poldrack-survey-multi-choice","15","564982","0.0-6.0","","","","","","1","2","1","<div><img src = ""images/top_2.jpg""</img></div><div><img src = ""images/bottom_2.jpg"" id=""bottom_img""</img></div>","E","1","1,8","1"
"","19503","","","","ravens","poldrack-survey-multi-choice","15","564982","0.0-6.0","","","","","","1","3","2","<div><img src = ""images/top_3.jpg""</img></div><div><img src = ""images/bottom_3.jpg"" id=""bottom_img""</img></div>","G","1","1,8","1"
"","12296","","","","ravens","poldrack-survey-multi-choice","15","564982","0.0-6.0","","","","","","1","4","3","<div><img src = ""images/top_4.jpg""</img></div><div><img src = ""images/bottom_4.jpg"" id=""bottom_img""</img></div>","B","1","1,8","1"
"","64011","","","","ravens","poldrack-survey-multi-choice","15","564982","0.0-6.0","","","","","","1","5","4","<div><img src = ""images/top_5.jpg""</img></div><div><img src = ""images/bottom_5.jpg"" id=""bottom_img""</img></div>","C","1","1,8","1"
"","22208","","","","ravens","poldrack-survey-multi-choice","15","564982","0.0-6.0","","","","","","1","6","5","<div><img src = ""images/top_6.jpg""</img></div><div><img src = ""images/bottom_6.jpg"" id=""bottom_img""</img></div>","B","1","1,8","1"
"","17752","","","","ravens","poldrack-survey-multi-choice","15","564982","0.0-6.0","","","","","","1","7","6","<div><img src = ""images/top_7.jpg""</img></div><div><img src = ""images/bottom_7.jpg"" id=""bottom_img""</img></div>","D","0","1,8","1"
"","29890","","","","ravens","poldrack-survey-multi-choice","15","564982","0.0-6.0","","","","","","1","8","7","<div><img src = ""images/top_8.jpg""</img></div><div><img src = ""images/bottom_8.jpg"" id=""bottom_img""</img></div>","D","0","1,8","1"
"","14002","","","","ravens","poldrack-survey-multi-choice","15","564982","0.0-6.0","","","","","","1","9","8","<div><img src = ""images/top_9.jpg""</img></div><div><img src = ""images/bottom_9.jpg"" id=""bottom_img""</img></div>","C","0","1,8","1"
"","12106","","","","ravens","poldrack-survey-multi-choice","15","564982","0.0-6.0","","","","","","1","10","9","<div><img src = ""images/top_10.jpg""</img></div><div><img src = ""images/bottom_10.jpg"" id=""bottom_img""</img></div>","E","1","1,8","1"
"","15011","","","","ravens","poldrack-survey-multi-choice","15","564982","0.0-6.0","","","","","","1","11","10","<div><img src = ""images/top_11.jpg""</img></div><div><img src = ""images/bottom_11.jpg"" id=""bottom_img""</img></div>","A","1","1,8","1"
"","23084","","","","ravens","poldrack-survey-multi-choice","15","564982","0.0-6.0","","","","","","1","12","11","<div><img src = ""images/top_12.jpg""</img></div><div><img src = ""images/bottom_12.jpg"" id=""bottom_img""</img></div>","C","0","1,8","1"
"","41477","","","","ravens","poldrack-survey-multi-choice","15","564982","0.0-6.0","","","","","","1","13","12","<div><img src = ""images/top_13.jpg""</img></div><div><img src = ""images/bottom_13.jpg"" id=""bottom_img""</img></div>","A","1","1,8","1"
"","8816","","","","ravens","poldrack-survey-multi-choice","15","564982","0.0-6.0","","","","","","1","14","13","<div><img src = ""images/top_14.jpg""</img></div><div><img src = ""images/bottom_14.jpg"" id=""bottom_img""</img></div>","D","0","1,8","1"
"","20732","","","","ravens","poldrack-survey-multi-choice","15","564983","0.0-6.0","","","","","","1","15","14","<div><img src = ""images/top_15.jpg""</img></div><div><img src = ""images/bottom_15.jpg"" id=""bottom_img""</img></div>","A","0","1,8","1"
"","19036","","","","ravens","poldrack-survey-multi-choice","15","564983","0.0-6.0","","","","","","1","16","15","<div><img src = ""images/top_16.jpg""</img></div><div><img src = ""images/bottom_16.jpg"" id=""bottom_img""</img></div>","D","0","1,8","1"
"","25896","","","","ravens","poldrack-survey-multi-choice","15","564983","0.0-6.0","","","","","","1","17","16","<div><img src = ""images/top_17.jpg""</img></div><div><img src = ""images/bottom_17.jpg"" id=""bottom_img""</img></div>","G","0","1,8","1"
"","15145","","","","ravens","poldrack-survey-multi-choice","15","564983","0.0-6.0","","","","","","1","18","17","<div><img src = ""images/top_18.jpg""</img></div><div><img src = ""images/bottom_18.jpg"" id=""bottom_img""</img></div>","C","0","1,8","1"
"","408718","","","","ravens","poldrack-survey-multi-choice","15","564983","0.0-6.0","true","0","[{""page_index"":0,""viewing_time"":19824},{""page_index"":1,""viewing_time"":27928},{""page_index"":2,""viewing_time"":19503},{""page_index"":3,""viewing_time"":12296},{""page_index"":4,""viewing_time"":64011},{""page_index"":5,""viewing_time"":22208},{""page_index"":6,""viewing_time"":17752},{""page_index"":7,""viewing_time"":29890},{""page_index"":8,""viewing_time"":14002},{""page_index"":9,""viewing_time"":12106},{""page_index"":10,""viewing_time"":15011},{""page_index"":11,""viewing_time"":23084},{""page_index"":12,""viewing_time"":41477},{""page_index"":13,""viewing_time"":8816},{""page_index"":14,""viewing_time"":20732},{""page_index"":15,""viewing_time"":19036},{""page_index"":16,""viewing_time"":25896},{""page_index"":17,""viewing_time"":15145}]","","","","","","","","","",""
"","1518","13","","","ravens","text","16","567503","0.0-7.0","true","0","","","","","","","","","","",""
