"text","rt","key_press","block_duration","timing_post_trial","trial_id","trial_type","trial_index","time_elapsed","internal_node_id","exp_id","full_screen","focus_shifts","view_history","stimulus","possible_responses","stim_duration","correct_response","condition","exp_stage","responses"
"<div class = centerbox><p class = center-block-text>Welcome to the experiment. Press <strong>enter</strong> to begin.</p></div>","2135","13","2135","0","instruction","poldrack-text","0","2136","0.0-0.0-0.0","multisource","true","0","","","","","","","",""
"","13329","","","","instruction","poldrack-instructions","1","15467","0.0-0.0-1.0","multisource","true","0","[{""page_index"":0,""viewing_time"":4257},{""page_index"":1,""viewing_time"":9071}]","","","","","","",""
"","1278","49","1750","500","large_middle","poldrack-single-stim","2","18221","0.0-1.0-0.0","multisource","true","0","","<div class = centerbox><div class = center-ms-text ><span class = big>1</span>xx</div></div>","49,50,51,97,98,99","1750","49,97","practice_control","practice",""
"","688","49","1750","500","large_middle","poldrack-single-stim","3","20473","0.0-1.0-1.0","multisource","true","0","","<div class = centerbox><div class = center-ms-text ><span class = big>1</span>xx</div></div>","49,50,51,97,98,99","1750","49,97","practice_control","practice",""
"","732","50","1750","500","large_right","poldrack-single-stim","4","22725","0.0-1.0-2.0","multisource","true","0","","<div class = centerbox><div class = center-ms-text >x<span class = big>2</span>x</div></div>","49,50,51,97,98,99","1750","50,98","practice_control","practice",""
"","569","50","1750","500","large_right","poldrack-single-stim","5","24975","0.0-1.0-3.0","multisource","true","0","","<div class = centerbox><div class = center-ms-text >x<span class = big>2</span>x</div></div>","49,50,51,97,98,99","1750","50,98","practice_control","practice",""
"","567","50","1750","500","large_right","poldrack-single-stim","6","27226","0.0-1.0-4.0","multisource","true","0","","<div class = centerbox><div class = center-ms-text >x<span class = big>2</span>x</div></div>","49,50,51,97,98,99","1750","50,98","practice_control","practice",""
"","484","50","1750","500","large_right","poldrack-single-stim","7","29477","0.0-1.0-5.0","multisource","true","0","","<div class = centerbox><div class = center-ms-text >x<span class = big>2</span>x</div></div>","49,50,51,97,98,99","1750","50,98","practice_control","practice",""
"","640","51","1750","500","small_middle","poldrack-single-stim","8","31728","0.0-1.0-6.0","multisource","true","0","","<div class = centerbox><div class = center-ms-text >xx<span class = big>3</span></div></div>","49,50,51,97,98,99","1750","51,99","practice_control","practice",""
"","438","51","1750","500","small_middle","poldrack-single-stim","9","33978","0.0-1.0-7.0","multisource","true","0","","<div class = centerbox><div class = center-ms-text >xx<span class = big>3</span></div></div>","49,50,51,97,98,99","1750","51,99","practice_control","practice",""
"","435","51","1750","500","small_middle","poldrack-single-stim","10","36230","0.0-1.0-8.0","multisource","true","0","","<div class = centerbox><div class = center-ms-text >xx<span class = big>3</span></div></div>","49,50,51,97,98,99","1750","51,99","practice_control","practice",""
"","646","49","1750","500","large_middle","poldrack-single-stim","11","38481","0.0-1.0-9.0","multisource","true","0","","<div class = centerbox><div class = center-ms-text ><span class = big>1</span>xx</div></div>","49,50,51,97,98,99","1750","49,97","practice_control","practice",""
"","525","49","1750","500","large_middle","poldrack-single-stim","12","40731","0.0-1.0-10.0","multisource","true","0","","<div class = centerbox><div class = center-ms-text ><span class = big>1</span>xx</div></div>","49,50,51,97,98,99","1750","49,97","practice_control","practice",""
"","545","50","1750","500","large_right","poldrack-single-stim","13","42983","0.0-1.0-11.0","multisource","true","0","","<div class = centerbox><div class = center-ms-text >x<span class = big>2</span>x</div></div>","49,50,51,97,98,99","1750","50,98","practice_control","practice",""
"","702","49","1750","500","large_middle","poldrack-single-stim","14","45234","0.0-1.0-12.0","multisource","true","0","","<div class = centerbox><div class = center-ms-text ><span class = big>1</span>xx</div></div>","49,50,51,97,98,99","1750","49,97","practice_control","practice",""
"","579","49","1750","500","large_middle","poldrack-single-stim","15","47485","0.0-1.0-13.0","multisource","true","0","","<div class = centerbox><div class = center-ms-text ><span class = big>1</span>xx</div></div>","49,50,51,97,98,99","1750","49,97","practice_control","practice",""
"","650","51","1750","500","small_middle","poldrack-single-stim","16","49735","0.0-1.0-14.0","multisource","true","0","","<div class = centerbox><div class = center-ms-text >xx<span class = big>3</span></div></div>","49,50,51,97,98,99","1750","51,99","practice_control","practice",""
"","599","51","1750","500","small_middle","poldrack-single-stim","17","51987","0.0-1.0-15.0","multisource","true","0","","<div class = centerbox><div class = center-ms-text >xx<span class = big>3</span></div></div>","49,50,51,97,98,99","1750","51,99","practice_control","practice",""
"","530","51","1750","500","small_middle","poldrack-single-stim","18","54238","0.0-1.0-16.0","multisource","true","0","","<div class = centerbox><div class = center-ms-text >xx<span class = big>3</span></div></div>","49,50,51,97,98,99","1750","51,99","practice_control","practice",""
"","624","49","1750","500","large_middle","poldrack-single-stim","19","56488","0.0-1.0-17.0","multisource","true","0","","<div class = centerbox><div class = center-ms-text ><span class = big>1</span>xx</div></div>","49,50,51,97,98,99","1750","49,97","practice_control","practice",""
"","582","49","1750","500","large_middle","poldrack-single-stim","20","58740","0.0-1.0-18.0","multisource","true","0","","<div class = centerbox><div class = center-ms-text ><span class = big>1</span>xx</div></div>","49,50,51,97,98,99","1750","49,97","practice_control","practice",""
"","858","50","1750","500","large_right","poldrack-single-stim","21","60992","0.0-1.0-19.0","multisource","true","0","","<div class = centerbox><div class = center-ms-text >x<span class = big>2</span>x</div></div>","49,50,51,97,98,99","1750","50,98","practice_control","practice",""
"","-1","-1","1750","500","small_middle","poldrack-single-stim","22","63242","0.0-2.0-0.0","multisource","true","0","","<div class = centerbox><div class = center-ms-text >1<span class = small>3</span>1</div></div>","49,50,51,97,98,99","1750","51,99","practice_interference","practice",""
"","-1","-1","1750","500","small_middle","poldrack-single-stim","23","65493","0.0-2.0-1.0","multisource","true","0","","<div class = centerbox><div class = center-ms-text >3<span class = small>1</span>2</div></div>","49,50,51,97,98,99","1750","49,97","practice_interference","practice",""
"","137","49","1750","500","large_right","poldrack-single-stim","24","67745","0.0-2.0-2.0","multisource","true","0","","<div class = centerbox><div class = center-ms-text >33<span class = big>2</span></div></div>","49,50,51,97,98,99","1750","50,98","practice_interference","practice",""
"","1229","51","1750","500","large_left","poldrack-single-stim","25","69996","0.0-2.0-3.0","multisource","true","0","","<div class = centerbox><div class = center-ms-text ><span class = big>3</span>22</div></div>","49,50,51,97,98,99","1750","51,99","practice_interference","practice",""
"","1028","51","1750","500","large_left","poldrack-single-stim","26","72246","0.0-2.0-4.0","multisource","true","0","","<div class = centerbox><div class = center-ms-text ><span class = big>3</span>11</div></div>","49,50,51,97,98,99","1750","51,99","practice_interference","practice",""
"","864","51","1750","500","large_middle","poldrack-single-stim","27","74498","0.0-2.0-5.0","multisource","true","0","","<div class = centerbox><div class = center-ms-text >1<span class = big>3</span>1</div></div>","49,50,51,97,98,99","1750","51,99","practice_interference","practice",""
"","861","49","1750","500","large_right","poldrack-single-stim","28","76749","0.0-2.0-6.0","multisource","true","0","","<div class = centerbox><div class = center-ms-text >22<span class = big>1</span></div></div>","49,50,51,97,98,99","1750","49,97","practice_interference","practice",""
"","1026","50","1750","500","large_left","poldrack-single-stim","29","78999","0.0-2.0-7.0","multisource","true","0","","<div class = centerbox><div class = center-ms-text ><span class = big>2</span>33</div></div>","49,50,51,97,98,99","1750","50,98","practice_interference","practice",""
"","1198","49","1750","500","large_middle","poldrack-single-stim","30","81251","0.0-2.0-8.0","multisource","true","0","","<div class = centerbox><div class = center-ms-text >3<span class = big>1</span>2</div></div>","49,50,51,97,98,99","1750","49,97","practice_interference","practice",""
"","1155","50","1750","500","large_right","poldrack-single-stim","31","83502","0.0-2.0-9.0","multisource","true","0","","<div class = centerbox><div class = center-ms-text >11<span class = big>2</span></div></div>","49,50,51,97,98,99","1750","50,98","practice_interference","practice",""
"","880","50","1750","500","large_left","poldrack-single-stim","32","85753","0.0-2.0-10.0","multisource","true","0","","<div class = centerbox><div class = center-ms-text ><span class = big>2</span>11</div></div>","49,50,51,97,98,99","1750","50,98","practice_interference","practice",""
"","1223","49","1750","500","small_middle","poldrack-single-stim","33","88004","0.0-2.0-11.0","multisource","true","0","","<div class = centerbox><div class = center-ms-text >2<span class = small>1</span>2</div></div>","49,50,51,97,98,99","1750","49,97","practice_interference","practice",""
"","1018","49","1750","500","large_right","poldrack-single-stim","34","90256","0.0-2.0-12.0","multisource","true","0","","<div class = centerbox><div class = center-ms-text >33<span class = big>1</span></div></div>","49,50,51,97,98,99","1750","49,97","practice_interference","practice",""
"","982","51","1750","500","large_middle","poldrack-single-stim","35","92507","0.0-2.0-13.0","multisource","true","0","","<div class = centerbox><div class = center-ms-text >2<span class = big>3</span>2</div></div>","49,50,51,97,98,99","1750","51,99","practice_interference","practice",""
"","-1","-1","1750","500","small_right","poldrack-single-stim","36","94757","0.0-2.0-14.0","multisource","true","0","","<div class = centerbox><div class = center-ms-text >22<span class = small>1</span></div></div>","49,50,51,97,98,99","1750","49,97","practice_interference","practice",""
"","-1","-1","1750","500","small_middle","poldrack-single-stim","37","97008","0.0-2.0-15.0","multisource","true","0","","<div class = centerbox><div class = center-ms-text >2<span class = small>3</span>2</div></div>","49,50,51,97,98,99","1750","51,99","practice_interference","practice",""
"","-1","-1","1750","500","small_left","poldrack-single-stim","38","99259","0.0-2.0-16.0","multisource","true","0","","<div class = centerbox><div class = center-ms-text ><span class = small>2</span>11</div></div>","49,50,51,97,98,99","1750","50,98","practice_interference","practice",""
"","1388","51","1750","500","small_left","poldrack-single-stim","39","101509","0.0-2.0-17.0","multisource","true","0","","<div class = centerbox><div class = center-ms-text ><span class = small>3</span>11</div></div>","49,50,51,97,98,99","1750","51,99","practice_interference","practice",""
"","1473","50","1750","500","small_left","poldrack-single-stim","40","103761","0.0-2.0-18.0","multisource","true","0","","<div class = centerbox><div class = center-ms-text ><span class = small>2</span>33</div></div>","49,50,51,97,98,99","1750","50,98","practice_interference","practice",""
"","-1","-1","1750","500","large_middle","poldrack-single-stim","41","106013","0.0-2.0-19.0","multisource","true","0","","<div class = centerbox><div class = center-ms-text >2<span class = big>1</span>2</div></div>","49,50,51,97,98,99","1750","49,97","practice_interference","practice",""
"<div class = centerbox><p class = center-block-text>Starting test. Press <strong>enter</strong> to begin.</p></div>","2281","13","2281","1000","test_intro","poldrack-text","42","108795","0.0-3.0","multisource","true","0","","","","","","","",""
"","1255","50","1750","500","large_right","poldrack-single-stim","43","111547","0.0-4.0-0.0","multisource","true","0","","<div class = centerbox><div class = center-ms-text >x<span class = big>2</span>x</div></div>","49,50,51,97,98,99","1750","50,98","control","test",""
"","877","51","1750","500","small_middle","poldrack-single-stim","44","113797","0.0-4.0-1.0","multisource","true","0","","<div class = centerbox><div class = center-ms-text >xx<span class = big>3</span></div></div>","49,50,51,97,98,99","1750","51,99","control","test",""
"","745","50","1750","500","large_right","poldrack-single-stim","45","116049","0.0-4.0-2.0","multisource","true","0","","<div class = centerbox><div class = center-ms-text >x<span class = big>2</span>x</div></div>","49,50,51,97,98,99","1750","50,98","control","test",""
"","620","50","1750","500","large_right","poldrack-single-stim","46","118300","0.0-4.0-3.0","multisource","true","0","","<div class = centerbox><div class = center-ms-text >x<span class = big>2</span>x</div></div>","49,50,51,97,98,99","1750","50,98","control","test",""
"","642","51","1750","500","small_middle","poldrack-single-stim","47","120552","0.0-4.0-4.0","multisource","true","0","","<div class = centerbox><div class = center-ms-text >xx<span class = big>3</span></div></div>","49,50,51,97,98,99","1750","51,99","control","test",""
"","688","49","1750","500","large_middle","poldrack-single-stim","48","122803","0.0-4.0-5.0","multisource","true","0","","<div class = centerbox><div class = center-ms-text ><span class = big>1</span>xx</div></div>","49,50,51,97,98,99","1750","49,97","control","test",""
"","646","49","1750","500","large_middle","poldrack-single-stim","49","125055","0.0-4.0-6.0","multisource","true","0","","<div class = centerbox><div class = center-ms-text ><span class = big>1</span>xx</div></div>","49,50,51,97,98,99","1750","49,97","control","test",""
"","624","51","1750","500","small_middle","poldrack-single-stim","50","127306","0.0-4.0-7.0","multisource","true","0","","<div class = centerbox><div class = center-ms-text >xx<span class = big>3</span></div></div>","49,50,51,97,98,99","1750","51,99","control","test",""
"","525","49","1750","500","large_middle","poldrack-single-stim","51","129556","0.0-4.0-8.0","multisource","true","0","","<div class = centerbox><div class = center-ms-text ><span class = big>1</span>xx</div></div>","49,50,51,97,98,99","1750","49,97","control","test",""
"","548","49","1750","500","large_middle","poldrack-single-stim","52","131807","0.0-4.0-9.0","multisource","true","0","","<div class = centerbox><div class = center-ms-text ><span class = big>1</span>xx</div></div>","49,50,51,97,98,99","1750","49,97","control","test",""
"","567","49","1750","500","large_middle","poldrack-single-stim","53","134058","0.0-4.0-10.0","multisource","true","0","","<div class = centerbox><div class = center-ms-text ><span class = big>1</span>xx</div></div>","49,50,51,97,98,99","1750","49,97","control","test",""
"","709","50","1750","500","large_right","poldrack-single-stim","54","136309","0.0-4.0-11.0","multisource","true","0","","<div class = centerbox><div class = center-ms-text >x<span class = big>2</span>x</div></div>","49,50,51,97,98,99","1750","50,98","control","test",""
"","619","50","1750","500","large_right","poldrack-single-stim","55","138559","0.0-4.0-12.0","multisource","true","0","","<div class = centerbox><div class = center-ms-text >x<span class = big>2</span>x</div></div>","49,50,51,97,98,99","1750","50,98","control","test",""
"","576","50","1750","500","large_right","poldrack-single-stim","56","140811","0.0-4.0-13.0","multisource","true","0","","<div class = centerbox><div class = center-ms-text >x<span class = big>2</span>x</div></div>","49,50,51,97,98,99","1750","50,98","control","test",""
"","620","49","1750","500","large_middle","poldrack-single-stim","57","143062","0.0-4.0-14.0","multisource","true","0","","<div class = centerbox><div class = center-ms-text ><span class = big>1</span>xx</div></div>","49,50,51,97,98,99","1750","49,97","control","test",""
"","570","51","1750","500","small_middle","poldrack-single-stim","58","145312","0.0-4.0-15.0","multisource","true","0","","<div class = centerbox><div class = center-ms-text >xx<span class = big>3</span></div></div>","49,50,51,97,98,99","1750","51,99","control","test",""
"","703","50","1750","500","large_right","poldrack-single-stim","59","147563","0.0-4.0-16.0","multisource","true","0","","<div class = centerbox><div class = center-ms-text >x<span class = big>2</span>x</div></div>","49,50,51,97,98,99","1750","50,98","control","test",""
"","548","51","1750","500","small_middle","poldrack-single-stim","60","149814","0.0-4.0-17.0","multisource","true","0","","<div class = centerbox><div class = center-ms-text >xx<span class = big>3</span></div></div>","49,50,51,97,98,99","1750","51,99","control","test",""
"","634","51","1750","500","small_middle","poldrack-single-stim","61","152064","0.0-4.0-18.0","multisource","true","0","","<div class = centerbox><div class = center-ms-text >xx<span class = big>3</span></div></div>","49,50,51,97,98,99","1750","51,99","control","test",""
"","639","49","1750","500","large_middle","poldrack-single-stim","62","154315","0.0-4.0-19.0","multisource","true","0","","<div class = centerbox><div class = center-ms-text ><span class = big>1</span>xx</div></div>","49,50,51,97,98,99","1750","49,97","control","test",""
"","621","51","1750","500","small_middle","poldrack-single-stim","63","156566","0.0-4.0-20.0","multisource","true","0","","<div class = centerbox><div class = center-ms-text >xx<span class = big>3</span></div></div>","49,50,51,97,98,99","1750","51,99","control","test",""
"","512","51","1750","500","small_middle","poldrack-single-stim","64","158818","0.0-4.0-21.0","multisource","true","0","","<div class = centerbox><div class = center-ms-text >xx<span class = big>3</span></div></div>","49,50,51,97,98,99","1750","51,99","control","test",""
"","727","49","1750","500","large_middle","poldrack-single-stim","65","161068","0.0-4.0-22.0","multisource","true","0","","<div class = centerbox><div class = center-ms-text ><span class = big>1</span>xx</div></div>","49,50,51,97,98,99","1750","49,97","control","test",""
"","612","50","1750","500","large_right","poldrack-single-stim","66","163319","0.0-4.0-23.0","multisource","true","0","","<div class = centerbox><div class = center-ms-text >x<span class = big>2</span>x</div></div>","49,50,51,97,98,99","1750","50,98","control","test",""
"","1063","51","1750","500","large_right","poldrack-single-stim","67","165570","0.0-6.0-0.0","multisource","true","0","","<div class = centerbox><div class = center-ms-text >33<span class = big>2</span></div></div>","49,50,51,97,98,99","1750","50,98","interference","test",""
"","1341","50","1750","500","small_right","poldrack-single-stim","68","167821","0.0-6.0-1.0","multisource","true","0","","<div class = centerbox><div class = center-ms-text >11<span class = small>2</span></div></div>","49,50,51,97,98,99","1750","50,98","interference","test",""
"","1154","51","1750","500","small_left","poldrack-single-stim","69","170073","0.0-6.0-2.0","multisource","true","0","","<div class = centerbox><div class = center-ms-text ><span class = small>3</span>22</div></div>","49,50,51,97,98,99","1750","51,99","interference","test",""
"","1254","50","1750","500","large_left","poldrack-single-stim","70","172325","0.0-6.0-3.0","multisource","true","0","","<div class = centerbox><div class = center-ms-text ><span class = big>2</span>33</div></div>","49,50,51,97,98,99","1750","50,98","interference","test",""
"","785","49","1750","500","large_right","poldrack-single-stim","71","174576","0.0-6.0-4.0","multisource","true","0","","<div class = centerbox><div class = center-ms-text >33<span class = big>1</span></div></div>","49,50,51,97,98,99","1750","49,97","interference","test",""
"","984","51","1750","500","large_left","poldrack-single-stim","72","176827","0.0-6.0-5.0","multisource","true","0","","<div class = centerbox><div class = center-ms-text ><span class = big>3</span>11</div></div>","49,50,51,97,98,99","1750","51,99","interference","test",""
"","1019","51","1750","500","large_left","poldrack-single-stim","73","179078","0.0-6.0-6.0","multisource","true","0","","<div class = centerbox><div class = center-ms-text ><span class = big>3</span>22</div></div>","49,50,51,97,98,99","1750","51,99","interference","test",""
"","1538","50","1750","500","small_left","poldrack-single-stim","74","181331","0.0-6.0-7.0","multisource","true","0","","<div class = centerbox><div class = center-ms-text ><span class = small>2</span>11</div></div>","49,50,51,97,98,99","1750","50,98","interference","test",""
"","1086","49","1750","500","large_middle","poldrack-single-stim","75","183581","0.0-6.0-8.0","multisource","true","0","","<div class = centerbox><div class = center-ms-text >3<span class = big>1</span>2</div></div>","49,50,51,97,98,99","1750","49,97","interference","test",""
"","1075","51","1750","500","large_middle","poldrack-single-stim","76","185832","0.0-6.0-9.0","multisource","true","0","","<div class = centerbox><div class = center-ms-text >1<span class = big>3</span>1</div></div>","49,50,51,97,98,99","1750","51,99","interference","test",""
"","927","50","1750","500","large_left","poldrack-single-stim","77","188084","0.0-6.0-10.0","multisource","true","0","","<div class = centerbox><div class = center-ms-text ><span class = big>2</span>11</div></div>","49,50,51,97,98,99","1750","50,98","interference","test",""
"","780","49","1750","500","large_middle","poldrack-single-stim","78","190335","0.0-6.0-11.0","multisource","true","0","","<div class = centerbox><div class = center-ms-text >2<span class = big>1</span>2</div></div>","49,50,51,97,98,99","1750","49,97","interference","test",""
"","1545","49","1750","500","small_middle","poldrack-single-stim","79","192585","0.0-6.0-12.0","multisource","true","0","","<div class = centerbox><div class = center-ms-text >2<span class = small>1</span>2</div></div>","49,50,51,97,98,99","1750","49,97","interference","test",""
"","1598","50","1750","500","small_right","poldrack-single-stim","80","194837","0.0-6.0-13.0","multisource","true","0","","<div class = centerbox><div class = center-ms-text >33<span class = small>2</span></div></div>","49,50,51,97,98,99","1750","50,98","interference","test",""
"","-1","-1","1750","500","small_left","poldrack-single-stim","81","197088","0.0-6.0-14.0","multisource","true","0","","<div class = centerbox><div class = center-ms-text ><span class = small>2</span>33</div></div>","49,50,51,97,98,99","1750","50,98","interference","test",""
"","1504","51","1750","500","small_middle","poldrack-single-stim","82","199339","0.0-6.0-15.0","multisource","true","0","","<div class = centerbox><div class = center-ms-text >1<span class = small>3</span>1</div></div>","49,50,51,97,98,99","1750","51,99","interference","test",""
"","1101","49","1750","500","small_middle","poldrack-single-stim","83","201591","0.0-6.0-16.0","multisource","true","0","","<div class = centerbox><div class = center-ms-text >3<span class = small>1</span>2</div></div>","49,50,51,97,98,99","1750","49,97","interference","test",""
"","-1","-1","1750","500","large_right","poldrack-single-stim","84","203842","0.0-6.0-17.0","multisource","true","0","","<div class = centerbox><div class = center-ms-text >11<span class = big>2</span></div></div>","49,50,51,97,98,99","1750","50,98","interference","test",""
"","1278","51","1750","500","small_left","poldrack-single-stim","85","206093","0.0-6.0-18.0","multisource","true","0","","<div class = centerbox><div class = center-ms-text ><span class = small>3</span>11</div></div>","49,50,51,97,98,99","1750","51,99","interference","test",""
"","1155","49","1750","500","small_right","poldrack-single-stim","86","208344","0.0-6.0-19.0","multisource","true","0","","<div class = centerbox><div class = center-ms-text >22<span class = small>1</span></div></div>","49,50,51,97,98,99","1750","49,97","interference","test",""
"","1047","49","1750","500","large_right","poldrack-single-stim","87","210595","0.0-6.0-20.0","multisource","true","0","","<div class = centerbox><div class = center-ms-text >22<span class = big>1</span></div></div>","49,50,51,97,98,99","1750","49,97","interference","test",""
"","1172","49","1750","500","small_right","poldrack-single-stim","88","212847","0.0-6.0-21.0","multisource","true","0","","<div class = centerbox><div class = center-ms-text >33<span class = small>1</span></div></div>","49,50,51,97,98,99","1750","49,97","interference","test",""
"","1274","51","1750","500","small_middle","poldrack-single-stim","89","215097","0.0-6.0-22.0","multisource","true","0","","<div class = centerbox><div class = center-ms-text >2<span class = small>3</span>2</div></div>","49,50,51,97,98,99","1750","51,99","interference","test",""
"","1358","51","1750","500","large_middle","poldrack-single-stim","90","217348","0.0-6.0-23.0","multisource","true","0","","<div class = centerbox><div class = center-ms-text >2<span class = big>3</span>2</div></div>","49,50,51,97,98,99","1750","51,99","interference","test",""
"","915","49","1750","500","large_middle","poldrack-single-stim","91","219600","0.0-8.0-0.0","multisource","true","0","","<div class = centerbox><div class = center-ms-text ><span class = big>1</span>xx</div></div>","49,50,51,97,98,99","1750","49,97","control","test",""
"","697","49","1750","500","large_middle","poldrack-single-stim","92","221850","0.0-8.0-1.0","multisource","true","0","","<div class = centerbox><div class = center-ms-text ><span class = big>1</span>xx</div></div>","49,50,51,97,98,99","1750","49,97","control","test",""
"","934","50","1750","500","large_right","poldrack-single-stim","93","224102","0.0-8.0-2.0","multisource","true","0","","<div class = centerbox><div class = center-ms-text >x<span class = big>2</span>x</div></div>","49,50,51,97,98,99","1750","50,98","control","test",""
"","577","50","1750","500","large_right","poldrack-single-stim","94","226353","0.0-8.0-3.0","multisource","true","0","","<div class = centerbox><div class = center-ms-text >x<span class = big>2</span>x</div></div>","49,50,51,97,98,99","1750","50,98","control","test",""
"","550","50","1750","500","large_right","poldrack-single-stim","95","228604","0.0-8.0-4.0","multisource","true","0","","<div class = centerbox><div class = center-ms-text >x<span class = big>2</span>x</div></div>","49,50,51,97,98,99","1750","50,98","control","test",""
"","644","51","1750","500","small_middle","poldrack-single-stim","96","230855","0.0-8.0-5.0","multisource","true","0","","<div class = centerbox><div class = center-ms-text >xx<span class = big>3</span></div></div>","49,50,51,97,98,99","1750","51,99","control","test",""
"","760","51","1750","500","small_middle","poldrack-single-stim","97","233107","0.0-8.0-6.0","multisource","true","0","","<div class = centerbox><div class = center-ms-text >xx<span class = big>3</span></div></div>","49,50,51,97,98,99","1750","51,99","control","test",""
"","1015","51","1750","500","small_middle","poldrack-single-stim","98","235357","0.0-8.0-7.0","multisource","true","0","","<div class = centerbox><div class = center-ms-text >xx<span class = big>3</span></div></div>","49,50,51,97,98,99","1750","51,99","control","test",""
"","884","51","1750","500","small_middle","poldrack-single-stim","99","237608","0.0-8.0-8.0","multisource","true","0","","<div class = centerbox><div class = center-ms-text >xx<span class = big>3</span></div></div>","49,50,51,97,98,99","1750","51,99","control","test",""
"","808","50","1750","500","large_right","poldrack-single-stim","100","239859","0.0-8.0-9.0","multisource","true","0","","<div class = centerbox><div class = center-ms-text >x<span class = big>2</span>x</div></div>","49,50,51,97,98,99","1750","50,98","control","test",""
"","758","51","1750","500","small_middle","poldrack-single-stim","101","242113","0.0-8.0-10.0","multisource","true","0","","<div class = centerbox><div class = center-ms-text >xx<span class = big>3</span></div></div>","49,50,51,97,98,99","1750","51,99","control","test",""
"","849","49","1750","500","large_middle","poldrack-single-stim","102","244364","0.0-8.0-11.0","multisource","true","0","","<div class = centerbox><div class = center-ms-text ><span class = big>1</span>xx</div></div>","49,50,51,97,98,99","1750","49,97","control","test",""
"","709","49","1750","500","large_middle","poldrack-single-stim","103","246615","0.0-8.0-12.0","multisource","true","0","","<div class = centerbox><div class = center-ms-text ><span class = big>1</span>xx</div></div>","49,50,51,97,98,99","1750","49,97","control","test",""
"","594","50","1750","500","large_right","poldrack-single-stim","104","248866","0.0-8.0-13.0","multisource","true","0","","<div class = centerbox><div class = center-ms-text >x<span class = big>2</span>x</div></div>","49,50,51,97,98,99","1750","50,98","control","test",""
"","561","51","1750","500","small_middle","poldrack-single-stim","105","251117","0.0-8.0-14.0","multisource","true","0","","<div class = centerbox><div class = center-ms-text >xx<span class = big>3</span></div></div>","49,50,51,97,98,99","1750","51,99","control","test",""
"","661","49","1750","500","large_middle","poldrack-single-stim","106","253368","0.0-8.0-15.0","multisource","true","0","","<div class = centerbox><div class = center-ms-text ><span class = big>1</span>xx</div></div>","49,50,51,97,98,99","1750","49,97","control","test",""
"","529","50","1750","500","large_right","poldrack-single-stim","107","255619","0.0-8.0-16.0","multisource","true","0","","<div class = centerbox><div class = center-ms-text >x<span class = big>2</span>x</div></div>","49,50,51,97,98,99","1750","50,98","control","test",""
"","544","50","1750","500","large_right","poldrack-single-stim","108","257869","0.0-8.0-17.0","multisource","true","0","","<div class = centerbox><div class = center-ms-text >x<span class = big>2</span>x</div></div>","49,50,51,97,98,99","1750","50,98","control","test",""
"","717","49","1750","500","large_middle","poldrack-single-stim","109","260120","0.0-8.0-18.0","multisource","true","0","","<div class = centerbox><div class = center-ms-text ><span class = big>1</span>xx</div></div>","49,50,51,97,98,99","1750","49,97","control","test",""
"","568","49","1750","500","large_middle","poldrack-single-stim","110","262372","0.0-8.0-19.0","multisource","true","0","","<div class = centerbox><div class = center-ms-text ><span class = big>1</span>xx</div></div>","49,50,51,97,98,99","1750","49,97","control","test",""
"","614","51","1750","500","small_middle","poldrack-single-stim","111","264622","0.0-8.0-20.0","multisource","true","0","","<div class = centerbox><div class = center-ms-text >xx<span class = big>3</span></div></div>","49,50,51,97,98,99","1750","51,99","control","test",""
"","756","49","1750","500","large_middle","poldrack-single-stim","112","266874","0.0-8.0-21.0","multisource","true","0","","<div class = centerbox><div class = center-ms-text ><span class = big>1</span>xx</div></div>","49,50,51,97,98,99","1750","49,97","control","test",""
"","561","50","1750","500","large_right","poldrack-single-stim","113","269124","0.0-8.0-22.0","multisource","true","0","","<div class = centerbox><div class = center-ms-text >x<span class = big>2</span>x</div></div>","49,50,51,97,98,99","1750","50,98","control","test",""
"","549","51","1750","500","small_middle","poldrack-single-stim","114","271376","0.0-8.0-23.0","multisource","true","0","","<div class = centerbox><div class = center-ms-text >xx<span class = big>3</span></div></div>","49,50,51,97,98,99","1750","51,99","control","test",""
"","835","49","1750","500","large_middle","poldrack-single-stim","115","273626","0.0-9.0-0.0","multisource","true","0","","<div class = centerbox><div class = center-ms-text >3<span class = big>1</span>2</div></div>","49,50,51,97,98,99","1750","49,97","interference","test",""
"","974","50","1750","500","small_right","poldrack-single-stim","116","275877","0.0-9.0-1.0","multisource","true","0","","<div class = centerbox><div class = center-ms-text >11<span class = small>2</span></div></div>","49,50,51,97,98,99","1750","50,98","interference","test",""
"","964","49","1750","500","small_right","poldrack-single-stim","117","278128","0.0-9.0-2.0","multisource","true","0","","<div class = centerbox><div class = center-ms-text >33<span class = small>1</span></div></div>","49,50,51,97,98,99","1750","49,97","interference","test",""
"","923","51","1750","500","large_left","poldrack-single-stim","118","280378","0.0-9.0-3.0","multisource","true","0","","<div class = centerbox><div class = center-ms-text ><span class = big>3</span>22</div></div>","49,50,51,97,98,99","1750","51,99","interference","test",""
"","927","50","1750","500","small_middle","poldrack-single-stim","119","282630","0.0-9.0-4.0","multisource","true","0","","<div class = centerbox><div class = center-ms-text >3<span class = small>1</span>2</div></div>","49,50,51,97,98,99","1750","49,97","interference","test",""
"","1123","50","1750","500","small_right","poldrack-single-stim","120","284881","0.0-9.0-5.0","multisource","true","0","","<div class = centerbox><div class = center-ms-text >33<span class = small>2</span></div></div>","49,50,51,97,98,99","1750","50,98","interference","test",""
"","1224","50","1750","500","large_left","poldrack-single-stim","121","287133","0.0-9.0-6.0","multisource","true","0","","<div class = centerbox><div class = center-ms-text ><span class = big>2</span>33</div></div>","49,50,51,97,98,99","1750","50,98","interference","test",""
"","958","50","1750","500","large_left","poldrack-single-stim","122","289383","0.0-9.0-7.0","multisource","true","0","","<div class = centerbox><div class = center-ms-text ><span class = big>2</span>11</div></div>","49,50,51,97,98,99","1750","50,98","interference","test",""
"","873","51","1750","500","large_left","poldrack-single-stim","123","291634","0.0-9.0-8.0","multisource","true","0","","<div class = centerbox><div class = center-ms-text ><span class = big>3</span>11</div></div>","49,50,51,97,98,99","1750","51,99","interference","test",""
"","767","49","1750","500","large_right","poldrack-single-stim","124","293885","0.0-9.0-9.0","multisource","true","0","","<div class = centerbox><div class = center-ms-text >22<span class = big>1</span></div></div>","49,50,51,97,98,99","1750","49,97","interference","test",""
"","1061","49","1750","500","small_middle","poldrack-single-stim","125","296135","0.0-9.0-10.0","multisource","true","0","","<div class = centerbox><div class = center-ms-text >2<span class = small>1</span>2</div></div>","49,50,51,97,98,99","1750","49,97","interference","test",""
"","979","49","1750","500","large_middle","poldrack-single-stim","126","298386","0.0-9.0-11.0","multisource","true","0","","<div class = centerbox><div class = center-ms-text >2<span class = big>1</span>2</div></div>","49,50,51,97,98,99","1750","49,97","interference","test",""
"","1143","51","1750","500","small_left","poldrack-single-stim","127","300637","0.0-9.0-12.0","multisource","true","0","","<div class = centerbox><div class = center-ms-text ><span class = small>3</span>22</div></div>","49,50,51,97,98,99","1750","51,99","interference","test",""
"","1093","51","1750","500","small_middle","poldrack-single-stim","128","302887","0.0-9.0-13.0","multisource","true","0","","<div class = centerbox><div class = center-ms-text >1<span class = small>3</span>1</div></div>","49,50,51,97,98,99","1750","51,99","interference","test",""
"","915","50","1750","500","small_left","poldrack-single-stim","129","305139","0.0-9.0-14.0","multisource","true","0","","<div class = centerbox><div class = center-ms-text ><span class = small>2</span>11</div></div>","49,50,51,97,98,99","1750","50,98","interference","test",""
"","846","51","1750","500","large_middle","poldrack-single-stim","130","307390","0.0-9.0-15.0","multisource","true","0","","<div class = centerbox><div class = center-ms-text >1<span class = big>3</span>1</div></div>","49,50,51,97,98,99","1750","51,99","interference","test",""
"","891","49","1750","500","small_right","poldrack-single-stim","131","309642","0.0-9.0-16.0","multisource","true","0","","<div class = centerbox><div class = center-ms-text >22<span class = small>1</span></div></div>","49,50,51,97,98,99","1750","49,97","interference","test",""
"","967","51","1750","500","small_middle","poldrack-single-stim","132","311894","0.0-9.0-17.0","multisource","true","0","","<div class = centerbox><div class = center-ms-text >2<span class = small>3</span>2</div></div>","49,50,51,97,98,99","1750","51,99","interference","test",""
"","955","51","1750","500","large_middle","poldrack-single-stim","133","314146","0.0-9.0-18.0","multisource","true","0","","<div class = centerbox><div class = center-ms-text >2<span class = big>3</span>2</div></div>","49,50,51,97,98,99","1750","51,99","interference","test",""
"","895","51","1750","500","small_left","poldrack-single-stim","134","316398","0.0-9.0-19.0","multisource","true","0","","<div class = centerbox><div class = center-ms-text ><span class = small>3</span>11</div></div>","49,50,51,97,98,99","1750","51,99","interference","test",""
"","980","50","1750","500","large_right","poldrack-single-stim","135","318649","0.0-9.0-20.0","multisource","true","0","","<div class = centerbox><div class = center-ms-text >11<span class = big>2</span></div></div>","49,50,51,97,98,99","1750","50,98","interference","test",""
"","1017","50","1750","500","large_right","poldrack-single-stim","136","320900","0.0-9.0-21.0","multisource","true","0","","<div class = centerbox><div class = center-ms-text >33<span class = big>2</span></div></div>","49,50,51,97,98,99","1750","50,98","interference","test",""
"","1365","50","1750","500","small_left","poldrack-single-stim","137","323152","0.0-9.0-22.0","multisource","true","0","","<div class = centerbox><div class = center-ms-text ><span class = small>2</span>33</div></div>","49,50,51,97,98,99","1750","50,98","interference","test",""
"","946","49","1750","500","large_right","poldrack-single-stim","138","325403","0.0-9.0-23.0","multisource","true","0","","<div class = centerbox><div class = center-ms-text >33<span class = big>1</span></div></div>","49,50,51,97,98,99","1750","49,97","interference","test",""
"","24422","","","","post task questions","survey-text","139","350331","0.0-11.0","multisource","true","0","","","","","","","","{""Q0"":""Find the number the was outstanding (bigger or smaller than the rest)"",""Q1"":""""}"
"<div class = centerbox><p class = center-block-text>Thanks for completing this task!</p><p class = center-block-text>Press <strong>enter</strong> to continue.</p></div>","1611","13","1611","0","end","poldrack-text","140","352943","0.0-12.0","multisource","true","0","","","","","","","",""
