"text","rt","key_press","block_duration","timing_post_trial","exp_id","trial_type","trial_index","time_elapsed","internal_node_id","full_screen","focus_shifts","view_history","exp_stage","trial_id","qnum","page_num","trial_num","stim_question","stim_response","score_response","response_range","times_viewed"
"<div class = centerbox><p class = center-block-text>Welcome to this survey.<br><br> Press <strong>enter</strong> to begin.</p></div>","1267","13","1267","0","ravens","poldrack-text","0","1268","0.0-0.0-0.0","true","0","","","","","","","","","","",""
"","61796","","","","ravens","poldrack-instructions","1","63065","0.0-0.0-1.0","true","0","[{""page_index"":0,""viewing_time"":24508},{""page_index"":1,""viewing_time"":34632},{""page_index"":2,""viewing_time"":2655}]","","","","","","","","","",""
"<div class = centerbox><p class = center-block-text>Starting with first example trial.  Press <strong> Enter </strong> to continue.</p></div>","2162","13","2162","0","ravens","poldrack-text","2","66229","0.0-1.0-0.0","true","0","","practice","feedback","","","","","","","",""
"","60786","","","","ravens","poldrack-survey-multi-choice","3","127017","0.0-1.0-1.0","","","","","","1","1","0","<div><img src = ""images/practice/practice_top_1.jpg""</img></div><div><img src = ""images/practice/practice_bottom_1.jpg"" id=""bottom_img""</img></div>","C","1","1,8","1"
"","60788","","","","ravens","poldrack-survey-multi-choice","3","127018","0.0-1.0-1.0","true","0","[{""page_index"":0,""viewing_time"":60786}]","","","","","","","","","",""
"<div class = centerbox><p class = center-block-text>That is correct. Please press <strong>Enter</strong> to continue.</p></div>","2199","13","2199","0","ravens","poldrack-text","4","130218","0.0-2.0","true","0","","practice","feedback","","","","","","","",""
"<div class = centerbox><p class = center-block-text>That is correct. Please press <strong>Enter</strong> to continue.</p></div>","2592","13","2592","0","ravens","poldrack-text","5","132810","0.0-3.0-0.0","true","0","","practice","feedback","","","","","","","",""
"","19435","","","","ravens","poldrack-survey-multi-choice","6","152245","0.0-3.0-1.0","","","","","","1","1","0","<div><img src = ""images/practice/practice_top_2.jpg""</img></div><div><img src = ""images/practice/practice_bottom_2.jpg"" id=""bottom_img""</img></div>","F","1","1,8","1"
"","19436","","","","ravens","poldrack-survey-multi-choice","6","152246","0.0-3.0-1.0","true","0","[{""page_index"":0,""viewing_time"":19435}]","","","","","","","","","",""
"<div class = centerbox><p class = center-block-text>That is correct. Please press <strong>Enter</strong> to continue.</p></div>","1561","13","1561","0","ravens","poldrack-text","7","154809","0.0-4.0","true","0","","practice","feedback","","","","","","","",""
"<div class = centerbox><p class = center-block-text>You are now ready to begin the test trials.<br><br>Press <strong> Enter </strong> to continue.</p></div>","1200","13","1200","0","ravens","poldrack-text","8","156009","0.0-5.0","true","0","","","","","","","","","","",""
"","11342","","","","ravens","poldrack-survey-multi-choice","9","549696","0.0-6.0","","","","","","1","1","0","<div><img src = ""images/top_1.jpg""</img></div><div><img src = ""images/bottom_1.jpg"" id=""bottom_img""</img></div>","B","1","1,8","1"
"","20721","","","","ravens","poldrack-survey-multi-choice","9","549696","0.0-6.0","","","","","","1","2","1","<div><img src = ""images/top_2.jpg""</img></div><div><img src = ""images/bottom_2.jpg"" id=""bottom_img""</img></div>","E","1","1,8","1"
"","42263","","","","ravens","poldrack-survey-multi-choice","9","549696","0.0-6.0","","","","","","1","3","2","<div><img src = ""images/top_3.jpg""</img></div><div><img src = ""images/bottom_3.jpg"" id=""bottom_img""</img></div>","F","0","1,8","1"
"","21804","","","","ravens","poldrack-survey-multi-choice","9","549696","0.0-6.0","","","","","","1","4","3","<div><img src = ""images/top_4.jpg""</img></div><div><img src = ""images/bottom_4.jpg"" id=""bottom_img""</img></div>","A","0","1,8","1"
"","12256","","","","ravens","poldrack-survey-multi-choice","9","549696","0.0-6.0","","","","","","1","5","4","<div><img src = ""images/top_5.jpg""</img></div><div><img src = ""images/bottom_5.jpg"" id=""bottom_img""</img></div>","H","0","1,8","1"
"","15576","","","","ravens","poldrack-survey-multi-choice","9","549696","0.0-6.0","","","","","","1","6","5","<div><img src = ""images/top_6.jpg""</img></div><div><img src = ""images/bottom_6.jpg"" id=""bottom_img""</img></div>","G","0","1,8","1"
"","8792","","","","ravens","poldrack-survey-multi-choice","9","549696","0.0-6.0","","","","","","1","7","6","<div><img src = ""images/top_7.jpg""</img></div><div><img src = ""images/bottom_7.jpg"" id=""bottom_img""</img></div>","H","0","1,8","1"
"","14639","","","","ravens","poldrack-survey-multi-choice","9","549696","0.0-6.0","","","","","","1","8","7","<div><img src = ""images/top_8.jpg""</img></div><div><img src = ""images/bottom_8.jpg"" id=""bottom_img""</img></div>","C","0","1,8","1"
"","44385","","","","ravens","poldrack-survey-multi-choice","9","549696","0.0-6.0","","","","","","1","9","8","<div><img src = ""images/top_9.jpg""</img></div><div><img src = ""images/bottom_9.jpg"" id=""bottom_img""</img></div>","C","0","1,8","1"
"","20129","","","","ravens","poldrack-survey-multi-choice","9","549696","0.0-6.0","","","","","","1","10","9","<div><img src = ""images/top_10.jpg""</img></div><div><img src = ""images/bottom_10.jpg"" id=""bottom_img""</img></div>","E","1","1,8","1"
"","22000","","","","ravens","poldrack-survey-multi-choice","9","549696","0.0-6.0","","","","","","1","11","10","<div><img src = ""images/top_11.jpg""</img></div><div><img src = ""images/bottom_11.jpg"" id=""bottom_img""</img></div>","A","1","1,8","1"
"","45811","","","","ravens","poldrack-survey-multi-choice","9","549696","0.0-6.0","","","","","","1","12","11","<div><img src = ""images/top_12.jpg""</img></div><div><img src = ""images/bottom_12.jpg"" id=""bottom_img""</img></div>","A","0","1,8","1"
"","23768","","","","ravens","poldrack-survey-multi-choice","9","549696","0.0-6.0","","","","","","1","13","12","<div><img src = ""images/top_13.jpg""</img></div><div><img src = ""images/bottom_13.jpg"" id=""bottom_img""</img></div>","D","0","1,8","1"
"","29568","","","","ravens","poldrack-survey-multi-choice","9","549696","0.0-6.0","","","","","","1","14","13","<div><img src = ""images/top_14.jpg""</img></div><div><img src = ""images/bottom_14.jpg"" id=""bottom_img""</img></div>","B","0","1,8","1"
"","10001","","","","ravens","poldrack-survey-multi-choice","9","549696","0.0-6.0","","","","","","1","15","14","<div><img src = ""images/top_15.jpg""</img></div><div><img src = ""images/bottom_15.jpg"" id=""bottom_img""</img></div>","H","0","1,8","1"
"","21767","","","","ravens","poldrack-survey-multi-choice","9","549696","0.0-6.0","","","","","","1","16","15","<div><img src = ""images/top_16.jpg""</img></div><div><img src = ""images/bottom_16.jpg"" id=""bottom_img""</img></div>","E","1","1,8","1"
"","12104","","","","ravens","poldrack-survey-multi-choice","9","549696","0.0-6.0","","","","","","1","17","16","<div><img src = ""images/top_17.jpg""</img></div><div><img src = ""images/bottom_17.jpg"" id=""bottom_img""</img></div>","G","0","1,8","1"
"","16760","","","","ravens","poldrack-survey-multi-choice","9","549696","0.0-6.0","","","","","","1","18","17","<div><img src = ""images/top_18.jpg""</img></div><div><img src = ""images/bottom_18.jpg"" id=""bottom_img""</img></div>","C","0","1,8","1"
"","393688","","","","ravens","poldrack-survey-multi-choice","9","549697","0.0-6.0","true","0","[{""page_index"":0,""viewing_time"":11342},{""page_index"":1,""viewing_time"":20721},{""page_index"":2,""viewing_time"":42263},{""page_index"":3,""viewing_time"":21804},{""page_index"":4,""viewing_time"":12256},{""page_index"":5,""viewing_time"":15576},{""page_index"":6,""viewing_time"":8792},{""page_index"":7,""viewing_time"":14639},{""page_index"":8,""viewing_time"":44385},{""page_index"":9,""viewing_time"":20129},{""page_index"":10,""viewing_time"":22000},{""page_index"":11,""viewing_time"":45811},{""page_index"":12,""viewing_time"":23768},{""page_index"":13,""viewing_time"":29568},{""page_index"":14,""viewing_time"":10001},{""page_index"":15,""viewing_time"":21767},{""page_index"":16,""viewing_time"":12104},{""page_index"":17,""viewing_time"":16760}]","","","","","","","","","",""
"","1386","13","","","ravens","text","10","552083","0.0-7.0","true","0","","","","","","","","","","",""
