block_num,con_num,trial,forced_choice,show_points,even_uneven,num_segments,selected_segment,selected_prob,win,RT
1,7,1,1,0,0,4,1,0.43,0,3.5783307543461
1,7,2,1,0,0,4,2,0.36,1,1.35666495001351
1,7,3,1,0,0,4,3,0.56,1,2.03993952892779
1,7,4,1,0,0,4,1,0.43,0,1.24516958890308
1,7,5,0,0,0,4,2,0.36,0,2.16074131407368
1,7,6,0,0,0,4,1,0.43,0,1.10252039298939
1,7,7,0,0,0,4,3,0.56,0,1.26637642641435
1,7,8,0,0,0,4,2,0.36,0,1.30617528280709
1,7,9,0,0,0,4,1,0.43,1,1.0653985409881
1,7,10,0,0,0,4,3,0.56,0,0.7153615012503
1,7,11,0,0,0,4,2,0.36,1,1.47579979580769
1,7,12,0,0,0,4,4,0.65,1,2.48900067558861
1,7,13,0,0,0,4,1,0.43,1,1.46214308872004
1,7,14,0,0,0,4,3,0.56,0,0.779641906890902
1,7,15,0,0,0,4,4,0.65,1,1.38263986201491
1,7,16,0,0,0,4,2,0.36,1,0.798655037724529
1,7,17,0,0,0,4,3,0.56,0,1.94944935456442
1,7,18,0,0,0,4,1,0.43,1,0.998381058350787
1,7,19,0,0,0,4,4,0.65,1,1.73205896896252
1,7,20,0,0,0,4,2,0.36,0,1.11331595352385
1,7,21,0,0,0,4,1,0.43,0,1.34669229362044
1,7,22,0,0,0,4,3,0.56,0,0.828848918303265
1,7,23,0,0,0,4,2,0.36,0,1.67184357697261
1,7,24,0,0,0,4,1,0.43,0,0.820659120261553
1,7,25,0,0,0,4,3,0.56,0,1.24859463307075
1,7,26,0,0,0,4,4,0.65,0,1.08782886734116
1,7,27,0,0,0,4,2,0.36,0,3.16438068765274
1,7,28,0,0,0,4,1,0.43,1,1.52690316960798
1,7,29,0,0,0,4,3,0.56,0,1.06571067705227
1,7,30,0,0,0,4,2,0.36,0,1.16415247211989
1,7,31,0,0,0,4,4,0.65,0,1.0492033889459
1,7,32,0,0,0,4,4,0.65,1,1.61391094402643
1,7,33,0,0,0,4,2,0.36,1,1.23260716922232
1,7,34,0,0,0,4,3,0.56,0,1.49905453567044
2,2,1,1,1,1,8,3,0.34,0,2.94980556398514
2,2,2,1,1,1,8,6,0.69,1,1.01851775824616
2,2,3,1,1,1,8,2,0.51,1,1.04277833690867
2,2,4,1,1,1,8,5,0.38,0,1.11910103607806
2,2,5,1,1,1,8,1,0.64,1,0.965716352249729
2,2,6,1,1,1,8,4,0.46,0,0.95648418883502
2,2,7,1,1,1,8,8,0.56,1,0.967400196459494
2,2,8,1,1,1,8,7,0.42,0,1.17621197238623
2,2,9,0,1,1,8,6,0.69,0,1.61167708830908
2,2,10,0,1,1,8,8,0.56,1,1.37973313273687
2,2,11,0,1,1,8,1,0.64,1,1.21402541402495
2,2,12,0,1,1,8,2,0.51,1,1.69862297888903
2,2,13,0,1,1,8,6,0.69,1,1.28588915607543
2,2,14,0,1,1,8,8,0.56,0,2.58108352869749
2,2,15,0,1,1,8,1,0.64,1,1.52533222566126
2,2,16,0,1,1,8,2,0.51,1,1.20073850061453
2,2,17,0,1,1,8,7,0.42,0,1.32832456595497
2,2,18,0,1,1,8,3,0.34,0,1.19410787349625
2,2,19,0,1,1,8,4,0.46,0,0.977163655290497
2,2,20,0,1,1,8,5,0.38,0,1.03171350619232
2,2,21,0,1,1,8,8,0.56,1,1.04556673222396
2,2,22,0,1,1,8,1,0.64,0,1.54209640718182
2,2,23,0,1,1,8,5,0.38,1,0.831365628459025
2,2,24,0,1,1,8,4,0.46,0,1.03160966209543
2,2,25,0,1,1,8,6,0.69,1,1.66555980122939
2,2,26,0,1,1,8,7,0.42,0,0.898697963988525
2,2,27,0,1,1,8,3,0.34,0,1.24887567626138
2,2,28,0,1,1,8,1,0.64,1,2.94189439417096
2,2,29,0,1,1,8,2,0.51,1,1.78446824270941
2,2,30,0,1,1,8,5,0.38,1,2.44821258336015
2,2,31,0,1,1,8,7,0.42,0,0.916312218163512
2,2,32,0,1,1,8,3,0.34,1,1.25403497734806
2,2,33,0,1,1,8,1,0.64,0,1.5150462257152
2,2,34,0,1,1,8,1,0.64,1,2.54621455036977
2,2,35,0,1,1,8,6,0.69,1,2.33569810104382
2,2,36,0,1,1,8,5,0.38,1,1.04457960948639
2,2,37,0,1,1,8,8,0.56,0,2.404168193636
2,2,38,0,1,1,8,1,0.64,0,1.14861811875016
3,8,1,1,0,0,8,1,0.64,1,4.64593809562211
3,8,2,1,0,0,8,4,0.42,0,1.26761591447575
3,8,3,1,0,0,8,2,0.69,1,1.32879065693123
3,8,4,1,0,0,8,6,0.38,1,1.00368465443898
3,8,5,1,0,0,8,1,0.64,1,1.0696751671785
3,8,6,1,0,0,8,7,0.34,1,0.928687778825406
3,8,7,1,0,0,8,1,0.64,1,1.24314100640186
3,8,8,1,0,0,8,2,0.69,1,1.26666712954466
3,8,9,0,0,0,8,1,0.64,1,1.12824082655425
3,8,10,0,0,0,8,2,0.69,1,1.71688112687843
3,8,11,0,0,0,8,6,0.38,1,1.19300573738292
3,8,12,0,0,0,8,7,0.34,0,1.14504666645371
3,8,13,0,0,0,8,1,0.64,0,0.866141026330297
3,8,14,0,0,0,8,2,0.69,1,1.61495995058795
3,8,15,0,0,0,8,4,0.42,0,1.34847303885908
3,8,16,0,0,0,8,4,0.42,1,1.11964682137477
3,8,17,0,0,0,8,5,0.46,0,2.07481937465491
3,8,18,0,0,0,8,6,0.38,0,1.49661359548918
3,8,19,0,0,0,8,7,0.34,0,0.900735602641362
3,8,20,0,0,0,8,1,0.64,0,1.08012025388598
3,8,21,0,0,0,8,2,0.69,0,1.39866324866307
3,8,22,0,0,0,8,8,0.51,0,0.881087030415074
3,8,23,0,0,0,8,7,0.34,0,1.56463087949669
3,8,24,0,0,0,8,6,0.38,1,1.32873269742413
3,8,25,0,0,0,8,5,0.46,1,1.36617242105422
3,8,26,0,0,0,8,4,0.42,0,1.09258607438824
3,8,27,0,0,0,8,3,0.56,0,0.965777028584853
3,8,28,0,0,0,8,2,0.69,1,1.41575073551212
3,8,29,0,0,0,8,1,0.64,1,0.9990249521652
3,8,30,0,0,0,8,1,0.64,0,1.48038976556563
3,8,31,0,0,0,8,6,0.38,1,1.19752869145304
3,8,32,0,0,0,8,3,0.56,1,1.39862068466027
3,8,33,0,0,0,8,8,0.51,1,1.49832370260265
3,8,34,0,0,0,8,4,0.42,1,1.34793480038934
3,8,35,0,0,0,8,5,0.46,0,1.24691410946252
3,8,36,0,0,0,8,7,0.34,0,1.20639921174734
3,8,37,0,0,0,8,1,0.64,0,1.23940231681627
3,8,38,0,0,0,8,3,0.56,0,1.06221076851944
4,5,1,1,0,1,4,3,0.65,0,1.4083898790559
4,5,2,1,0,1,4,2,0.43,1,0.984700201472151
4,5,3,1,0,1,4,1,0.56,0,1.08417530576116
4,5,4,1,0,1,4,4,0.36,1,1.25432477485447
4,5,5,0,0,1,4,2,0.43,1,1.42804750746291
4,5,6,0,0,1,4,3,0.65,0,1.64652493556787
4,5,7,0,0,1,4,4,0.36,0,1.24758969986578
4,5,8,0,0,1,4,1,0.56,1,1.13795991014922
4,5,9,0,0,1,4,3,0.65,1,1.90077303482394
4,5,10,0,0,1,4,2,0.43,1,1.14489844710624
4,5,11,0,0,1,4,4,0.36,1,0.981823357564281
4,5,12,0,0,1,4,1,0.56,0,1.07848621861194
4,5,13,0,0,1,4,3,0.65,1,1.06525998156576
4,5,14,0,0,1,4,2,0.43,1,1.2493864443677
4,5,15,0,0,1,4,4,0.36,0,0.881527462232043
4,5,16,0,0,1,4,3,0.65,1,1.09881007940567
4,5,17,0,0,1,4,2,0.43,1,1.49134984656121
4,5,18,0,0,1,4,4,0.36,1,0.846877341391519
4,5,19,0,0,1,4,1,0.56,1,0.824132464025752
4,5,20,0,0,1,4,2,0.43,0,1.96551409774111
4,5,21,0,0,1,4,1,0.56,0,1.91077285974461
4,5,22,0,0,1,4,3,0.65,0,1.17526831927535
4,5,23,0,0,1,4,4,0.36,0,0.815453632705612
4,5,24,0,0,1,4,1,0.56,1,1.06003698540735
4,5,25,0,0,1,4,2,0.43,1,0.897734991056495
4,5,26,0,0,1,4,3,0.65,1,0.761487602998386
4,5,27,0,0,1,4,4,0.36,1,1.54866998041689
4,5,28,0,0,1,4,1,0.56,1,0.882392024766887
4,5,29,0,0,1,4,2,0.43,0,0.838029461534461
4,5,30,0,0,1,4,1,0.56,0,1.31505999110232
4,5,31,0,0,1,4,4,0.36,1,1.09902772938949
4,5,32,0,0,1,4,2,0.43,0,0.998799151624553
4,5,33,0,0,1,4,3,0.65,1,1.28174233502068
4,5,34,0,0,1,4,1,0.56,1,1.3992899357545
5,1,1,1,1,1,4,2,0.43,1,1.3680213894695
5,1,2,1,1,1,4,4,0.56,1,0.972151667941944
5,1,3,1,1,1,4,1,0.65,1,0.926656479467056
5,1,4,1,1,1,4,3,0.36,0,1.12509259935177
5,1,5,0,1,1,4,2,0.43,0,0.846263031082344
5,1,6,0,1,1,4,1,0.65,1,1.14810252068855
5,1,7,0,1,1,4,4,0.56,1,1.1613070229505
5,1,8,0,1,1,4,1,0.65,0,0.865709952544421
5,1,9,0,1,1,4,2,0.43,0,0.927031404993613
5,1,10,0,1,1,4,2,0.43,1,1.23192433387158
5,1,11,0,1,1,4,3,0.36,0,1.08226052914688
5,1,12,0,1,1,4,4,0.56,1,1.01014774238865
5,1,13,0,1,1,4,3,0.36,0,1.15841931161413
5,1,14,0,1,1,4,1,0.65,0,1.14780789324141
5,1,15,0,1,1,4,2,0.43,1,0.961497383672395
5,1,16,0,1,1,4,1,0.65,0,1.15006167252432
5,1,17,0,1,1,4,4,0.56,1,1.38030004907341
5,1,18,0,1,1,4,3,0.36,0,0.913934973068535
5,1,19,0,1,1,4,2,0.43,1,1.23128768499009
5,1,20,0,1,1,4,1,0.65,1,1.86600427812664
5,1,21,0,1,1,4,3,0.36,1,1.98226409124618
5,1,22,0,1,1,4,4,0.56,0,1.04670750799414
5,1,23,0,1,1,4,1,0.65,1,1.14842854287417
5,1,24,0,1,1,4,1,0.65,1,1.19569904287346
5,1,25,0,1,1,4,2,0.43,0,0.705019051165436
5,1,26,0,1,1,4,1,0.65,1,0.932491069106618
5,1,27,0,1,1,4,2,0.43,0,0.841180707458989
5,1,28,0,1,1,4,4,0.56,0,1.21508498613548
5,1,29,0,1,1,4,3,0.36,1,0.743023879927932
5,1,30,0,1,1,4,4,0.56,1,2.84836708166404
5,1,31,0,1,1,4,2,0.43,1,1.24859191622818
5,1,32,0,1,1,4,1,0.65,0,1.61550060404988
5,1,33,0,1,1,4,3,0.36,0,0.989481860189699
5,1,34,0,1,1,4,4,0.56,0,0.829726159470738
6,4,1,1,1,0,8,3,0.51,0,1.34691507545358
6,4,2,1,1,0,8,4,0.38,0,1.03833477527951
6,4,3,1,1,0,8,8,0.34,0,1.0835631085356
6,4,4,1,1,0,8,1,0.69,0,0.904759863522486
6,4,5,1,1,0,8,8,0.34,1,0.999408933857922
6,4,6,1,1,0,8,3,0.51,1,1.19544728129404
6,4,7,1,1,0,8,6,0.46,0,0.812787495713565
6,4,8,1,1,0,8,3,0.51,1,0.978016746681533
6,4,9,0,1,0,8,3,0.51,1,1.07463583623758
6,4,10,0,1,0,8,2,0.56,1,1.37075212714262
6,4,11,0,1,0,8,7,0.42,1,0.947437978800735
6,4,12,0,1,0,8,5,0.64,0,1.57576966895431
6,4,13,0,1,0,8,4,0.38,1,1.9253366933699
6,4,14,0,1,0,8,1,0.69,0,0.959052519159741
6,4,15,0,1,0,8,2,0.56,1,0.898445296799764
6,4,16,0,1,0,8,7,0.42,0,1.28238200260967
6,4,17,0,1,0,8,6,0.46,0,1.09365621201869
6,4,18,0,1,0,8,5,0.64,1,2.19377249326499
6,4,19,0,1,0,8,8,0.34,0,2.28150445956271
6,4,20,0,1,0,8,1,0.69,0,1.08827111039136
6,4,21,0,1,0,8,2,0.56,0,1.27757589222165
6,4,22,0,1,0,8,3,0.51,1,1.24915309700009
6,4,23,0,1,0,8,6,0.46,0,1.01467069647333
6,4,24,0,1,0,8,4,0.38,0,0.965307617021608
6,4,25,0,1,0,8,7,0.42,0,1.0476514629554
6,4,26,0,1,0,8,5,0.64,0,2.79629469748761
6,4,27,0,1,0,8,6,0.46,1,1.11564157844987
6,4,28,0,1,0,8,8,0.34,1,0.798805672064191
6,4,29,0,1,0,8,1,0.69,0,1.33560814306838
6,4,30,0,1,0,8,2,0.56,0,0.975177334941691
6,4,31,0,1,0,8,7,0.42,0,0.983849223193829
6,4,32,0,1,0,8,4,0.38,1,1.0619143298245
6,4,33,0,1,0,8,3,0.51,0,1.04530168825295
6,4,34,0,1,0,8,5,0.64,0,2.09900508896681
6,4,35,0,1,0,8,3,0.51,0,3.29858832393074
6,4,36,0,1,0,8,7,0.42,1,0.865640220028581
6,4,37,0,1,0,8,8,0.34,1,1.23184071521973
6,4,38,0,1,0,8,2,0.56,0,1.61512899912486
7,6,1,1,0,1,8,4,0.38,0,1.64055933331838
7,6,2,1,0,1,8,6,0.69,0,0.932238703782787
7,6,3,1,0,1,8,3,0.46,0,1.00653251860058
7,6,4,1,0,1,8,7,0.34,0,0.988421986214234
7,6,5,1,0,1,8,2,0.51,1,0.825279579119524
7,6,6,1,0,1,8,5,0.56,0,0.937420041562291
7,6,7,1,0,1,8,8,0.64,1,0.790808770470903
7,6,8,1,0,1,8,1,0.42,1,0.840900871742633
7,6,9,0,0,1,8,8,0.64,1,0.737557574611856
7,6,10,0,0,1,8,1,0.42,0,1.0703912085155
7,6,11,0,0,1,8,2,0.51,1,0.890345154854003
7,6,12,0,0,1,8,3,0.46,0,1.14801890203671
7,6,13,0,0,1,8,4,0.38,0,0.898913802753668
7,6,14,0,0,1,8,5,0.56,0,1.33232679014327
7,6,15,0,0,1,8,6,0.69,0,1.96409378813405
7,6,16,0,0,1,8,7,0.34,1,1.29667233985674
7,6,17,0,0,1,8,2,0.51,0,0.965158492064802
7,6,18,0,0,1,8,1,0.42,0,0.965380670138984
7,6,19,0,0,1,8,8,0.64,0,1.09164574187889
7,6,20,0,0,1,8,5,0.56,0,0.721702330876724
7,6,21,0,0,1,8,4,0.38,1,0.932462693090201
7,6,22,0,0,1,8,3,0.46,1,0.780609709778219
7,6,23,0,0,1,8,6,0.69,0,1.23262286659156
7,6,24,0,0,1,8,7,0.34,1,1.24865742251859
7,6,25,0,0,1,8,3,0.46,0,1.08201118255965
7,6,26,0,0,1,8,2,0.51,0,0.930643911924562
7,6,27,0,0,1,8,1,0.42,0,0.948732407632633
7,6,28,0,0,1,8,8,0.64,0,0.897747367824195
7,6,29,0,0,1,8,5,0.56,1,1.12355244639912
7,6,30,0,0,1,8,8,0.64,1,0.72102704232384
7,6,31,0,0,1,8,5,0.56,1,0.867279387137387
7,6,32,0,0,1,8,8,0.64,1,1.19892304005043
7,6,33,0,0,1,8,5,0.56,1,1.04869231897464
7,6,34,0,0,1,8,1,0.42,0,1.36321890154795
7,6,35,0,0,1,8,4,0.38,1,1.11540189177322
7,6,36,0,0,1,8,1,0.42,1,1.23247615661239
7,6,37,0,0,1,8,2,0.51,0,0.949255854357034
7,6,38,0,0,1,8,3,0.46,1,0.832197286887094
8,3,1,1,1,0,4,4,0.65,0,1.37947322060063
8,3,2,1,1,0,4,1,0.43,0,1.17994764324976
8,3,3,1,1,0,4,1,0.43,1,1.96953201929864
8,3,4,1,1,0,4,2,0.36,0,1.25027032673825
8,3,5,0,1,0,4,1,0.43,0,0.867082868207945
8,3,6,0,1,0,4,3,0.56,0,1.19863505377725
8,3,7,0,1,0,4,2,0.36,0,0.748762172253919
8,3,8,0,1,0,4,4,0.65,0,1.09762885273085
8,3,9,0,1,0,4,1,0.43,0,0.995019105495885
8,3,10,0,1,0,4,3,0.56,0,0.922114809320192
8,3,11,0,1,0,4,3,0.56,1,1.14749817215488
8,3,12,0,1,0,4,2,0.36,1,1.93238631938584
8,3,13,0,1,0,4,1,0.43,1,1.11071773784352
8,3,14,0,1,0,4,4,0.65,0,3.67934087973845
8,3,15,0,1,0,4,1,0.43,1,1.86455227191618
8,3,16,0,1,0,4,3,0.56,1,1.0987801940355
8,3,17,0,1,0,4,2,0.36,1,0.947424092679285
8,3,18,0,1,0,4,3,0.56,0,1.64876301749609
8,3,19,0,1,0,4,4,0.65,1,0.815107083195471
8,3,20,0,1,0,4,4,0.65,1,0.979508901917143
8,3,21,0,1,0,4,4,0.65,1,2.31556924984034
8,3,22,0,1,0,4,3,0.56,1,1.03206730063539
8,3,23,0,1,0,4,4,0.65,1,0.997131608528434
8,3,24,0,1,0,4,3,0.56,1,1.00165969441878
8,3,25,0,1,0,4,4,0.65,1,1.12751995527651
8,3,26,0,1,0,4,3,0.56,0,1.2857016933267
8,3,27,0,1,0,4,2,0.36,1,1.98101645265706
8,3,28,0,1,0,4,2,0.36,1,1.46436245455698
8,3,29,0,1,0,4,1,0.43,0,0.780330477820826
8,3,30,0,1,0,4,4,0.65,0,0.969297162577277
8,3,31,0,1,0,4,3,0.56,1,0.735132029920351
8,3,32,0,1,0,4,4,0.65,1,0.967030704647186
8,3,33,0,1,0,4,3,0.56,1,1.23930783076503
8,3,34,0,1,0,4,4,0.65,1,0.98210681573255
