block_num,con_num,trial,forced_choice,show_points,even_uneven,num_segments,selected_segment,selected_prob,win,RT
1,8,1,1,0,0,8,4,0.34,0,5.63012314331718
1,8,2,1,0,0,8,8,0.46,1,1.3146604092326
1,8,3,1,0,0,8,4,0.34,0,1.04855738370679
1,8,4,1,0,0,8,5,0.51,1,1.0280303535983
1,8,5,1,0,0,8,7,0.56,1,4.66490053501911
1,8,6,1,0,0,8,7,0.56,0,1.30343782831915
1,8,7,1,0,0,8,2,0.38,0,1.05618533724919
1,8,8,1,0,0,8,4,0.34,0,0.941130275372416
1,8,9,0,0,0,8,8,0.46,0,1.26254769298248
1,8,10,0,0,0,8,7,0.56,1,1.15329511929303
1,8,11,0,0,0,8,6,0.42,1,1.38291698554531
1,8,12,0,0,0,8,8,0.46,0,0.76691458770074
1,8,13,0,0,0,8,8,0.46,1,1.5663954813499
1,8,14,0,0,0,8,5,0.51,0,0.983937955927104
1,8,15,0,0,0,8,1,0.64,1,1.88400508021004
1,8,16,0,0,0,8,5,0.51,1,1.43090869486332
1,8,17,0,0,0,8,1,0.64,1,1.26597604947165
1,8,18,0,0,0,8,8,0.46,0,1.13255695090629
1,8,19,0,0,0,8,3,0.69,0,2.05282853334211
1,8,20,0,0,0,8,2,0.38,1,1.49969751527533
1,8,21,0,0,0,8,5,0.51,0,0.966686206869781
1,8,22,0,0,0,8,4,0.34,0,1.01666202838533
1,8,23,0,0,0,8,6,0.42,1,1.00737664033659
1,8,24,0,0,0,8,8,0.46,1,1.18390106526203
1,8,25,0,0,0,8,2,0.38,1,1.18129116296768
1,8,26,0,0,0,8,4,0.34,1,0.96764688543044
1,8,27,0,0,0,8,5,0.51,0,1.84970626863651
1,8,28,0,0,0,8,7,0.56,0,0.893122437410057
1,8,29,0,0,0,8,6,0.42,0,0.865496472455561
1,8,30,0,0,0,8,3,0.69,0,1.70966300275177
1,8,31,0,0,0,8,2,0.38,1,1.22476774058305
1,8,32,0,0,0,8,8,0.46,0,0.865636644652113
1,8,33,0,0,0,8,1,0.64,0,1.09940854925662
1,8,34,0,0,0,8,5,0.51,1,1.38523217430338
1,8,35,0,0,0,8,3,0.69,0,1.15615574852563
1,8,36,0,0,0,8,4,0.34,0,0.891465882537887
1,8,37,0,0,0,8,6,0.42,0,1.21667850902304
1,8,38,0,0,0,8,7,0.56,0,0.997635545674711
2,3,1,1,1,0,4,3,0.43,0,1.72887276532128
2,3,2,1,1,0,4,1,0.65,0,1.17428284138441
2,3,3,1,1,0,4,4,0.56,1,0.81267966912128
2,3,4,1,1,0,4,1,0.65,0,0.967777673853561
2,3,5,0,1,0,4,4,0.56,0,0.846370578510687
2,3,6,0,1,0,4,2,0.36,0,0.73309201025404
2,3,7,0,1,0,4,3,0.43,0,1.19869422772899
2,3,8,0,1,0,4,3,0.43,1,1.74699487304315
2,3,9,0,1,0,4,3,0.43,1,1.38302108831704
2,3,10,0,1,0,4,1,0.65,0,1.04567915969528
2,3,11,0,1,0,4,2,0.36,1,1.04929255507886
2,3,12,0,1,0,4,4,0.56,1,1.33293500542641
2,3,13,0,1,0,4,3,0.43,1,0.79949848819524
2,3,14,0,1,0,4,1,0.65,0,0.982498697238043
2,3,15,0,1,0,4,2,0.36,1,0.833857708610594
2,3,16,0,1,0,4,4,0.56,0,0.750512376660481
2,3,17,0,1,0,4,3,0.43,1,0.669844980584458
2,3,18,0,1,0,4,1,0.65,0,1.14940988342278
2,3,19,0,1,0,4,4,0.56,1,1.07515522302128
2,3,20,0,1,0,4,4,0.56,1,1.68294551852159
2,3,21,0,1,0,4,1,0.65,0,1.12664596131071
2,3,22,0,1,0,4,2,0.36,1,0.816404498647898
2,3,23,0,1,0,4,1,0.65,0,1.4417283537332
2,3,24,0,1,0,4,3,0.43,1,1.24305553315207
2,3,25,0,1,0,4,1,0.65,1,0.883498348528519
2,3,26,0,1,0,4,4,0.56,1,1.68331823591143
2,3,27,0,1,0,4,1,0.65,1,1.16658656136133
2,3,28,0,1,0,4,1,0.65,1,1.55071055330336
2,3,29,0,1,0,4,1,0.65,1,1.31679319799878
2,3,30,0,1,0,4,3,0.43,0,0.61065620277077
2,3,31,0,1,0,4,4,0.56,0,0.760794806294143
2,3,32,0,1,0,4,2,0.36,1,1.08803787804209
2,3,33,0,1,0,4,4,0.56,0,0.929020914249122
2,3,34,0,1,0,4,4,0.56,1,0.971797803649679
3,5,1,1,0,1,4,4,0.65,1,2.15179281239398
3,5,2,1,0,1,4,2,0.56,0,0.828059326391667
3,5,3,1,0,1,4,3,0.36,0,0.756127186119556
3,5,4,1,0,1,4,1,0.43,0,1.23497627186589
3,5,5,0,0,1,4,4,0.65,0,0.737357588019222
3,5,6,0,0,1,4,4,0.65,1,0.817556081339717
3,5,7,0,0,1,4,2,0.56,0,1.12945058033802
3,5,8,0,0,1,4,3,0.36,0,0.918170757591724
3,5,9,0,0,1,4,1,0.43,0,1.18522888980806
3,5,10,0,0,1,4,1,0.43,1,1.46801476436667
3,5,11,0,0,1,4,3,0.36,0,1.00074690114707
3,5,12,0,0,1,4,4,0.65,0,1.20181203470565
3,5,13,0,0,1,4,2,0.56,0,1.21850983961485
3,5,14,0,0,1,4,3,0.36,1,1.202404394513
3,5,15,0,0,1,4,4,0.65,0,1.20140412752517
3,5,16,0,0,1,4,1,0.43,1,0.886039338074625
3,5,17,0,0,1,4,2,0.56,0,0.761045826133341
3,5,18,0,0,1,4,3,0.36,0,0.718402657425031
3,5,19,0,0,1,4,4,0.65,0,1.15152126527391
3,5,20,0,0,1,4,1,0.43,0,0.717967771459371
3,5,21,0,0,1,4,2,0.56,1,0.990016976138577
3,5,22,0,0,1,4,1,0.43,0,0.997599769383669
3,5,23,0,0,1,4,1,0.43,1,1.27770506870002
3,5,24,0,0,1,4,1,0.43,1,1.23527215863578
3,5,25,0,0,1,4,4,0.65,0,1.04176547890529
3,5,26,0,0,1,4,4,0.65,1,0.918457260355353
3,5,27,0,0,1,4,4,0.65,1,1.2847430082038
3,5,28,0,0,1,4,3,0.36,0,1.06850525015034
3,5,29,0,0,1,4,3,0.36,1,1.76854093838483
3,5,30,0,0,1,4,2,0.56,1,0.951464609941468
3,5,31,0,0,1,4,2,0.56,1,1.16883899504319
3,5,32,0,0,1,4,1,0.43,0,1.08267643442377
3,5,33,0,0,1,4,4,0.65,1,1.00218088156544
3,5,34,0,0,1,4,3,0.36,1,0.916019493946806
4,4,1,1,1,0,8,5,0.56,1,3.88506868900731
4,4,2,1,1,0,8,7,0.69,1,0.922744831535965
4,4,3,1,1,0,8,1,0.42,1,0.891194042051211
4,4,4,1,1,0,8,1,0.42,1,1.82054368662648
4,4,5,1,1,0,8,4,0.46,1,0.86053589801304
4,4,6,1,1,0,8,1,0.42,0,0.66947196982801
4,4,7,1,1,0,8,2,0.51,1,1.05001101153903
4,4,8,1,1,0,8,2,0.51,0,0.879753578454256
4,4,9,0,1,0,8,6,0.38,0,0.706234060227871
4,4,10,0,1,0,8,7,0.69,0,1.28262869385071
4,4,11,0,1,0,8,7,0.69,1,0.882944697281346
4,4,12,0,1,0,8,5,0.56,0,0.831602342426777
4,4,13,0,1,0,8,4,0.46,0,0.799992610234767
4,4,14,0,1,0,8,3,0.34,0,0.800465325126424
4,4,15,0,1,0,8,2,0.51,0,1.01606820244342
4,4,16,0,1,0,8,8,0.64,1,0.929691864410415
4,4,17,0,1,0,8,8,0.64,1,1.0659366955515
4,4,18,0,1,0,8,1,0.42,0,1.23377337073907
4,4,19,0,1,0,8,7,0.69,0,1.13711049756967
4,4,20,0,1,0,8,2,0.51,0,0.848003380466253
4,4,21,0,1,0,8,3,0.34,0,0.749900369206443
4,4,22,0,1,0,8,4,0.46,0,0.849251441657543
4,4,23,0,1,0,8,5,0.56,0,1.38917605951428
4,4,24,0,1,0,8,7,0.69,0,0.803843829315156
4,4,25,0,1,0,8,1,0.42,1,1.0589814519044
4,4,26,0,1,0,8,3,0.34,1,0.934778535040095
4,4,27,0,1,0,8,1,0.42,0,0.746887838002294
4,4,28,0,1,0,8,1,0.42,1,1.41047051851638
4,4,29,0,1,0,8,7,0.69,0,0.799133688211441
4,4,30,0,1,0,8,8,0.64,0,1.41685920790769
4,4,31,0,1,0,8,5,0.56,0,0.749447595095262
4,4,32,0,1,0,8,6,0.38,0,1.00228908983991
4,4,33,0,1,0,8,7,0.69,1,1.11141351447441
4,4,34,0,1,0,8,6,0.38,1,1.05820727837272
4,4,35,0,1,0,8,1,0.42,0,1.07507047476247
4,4,36,0,1,0,8,7,0.69,0,0.999610274098814
4,4,37,0,1,0,8,7,0.69,0,1.14179248712026
4,4,38,0,1,0,8,2,0.51,0,1.23279040516354
5,7,1,1,0,0,4,1,0.43,0,1.51439419900998
5,7,2,1,0,0,4,3,0.36,0,1.10528346919455
5,7,3,1,0,0,4,3,0.36,0,0.960624781437218
5,7,4,1,0,0,4,4,0.56,0,0.908873052801937
5,7,5,0,0,0,4,4,0.56,0,0.964406500803307
5,7,6,0,0,0,4,4,0.56,1,1.3340710462071
5,7,7,0,0,0,4,4,0.56,1,1.00009618513286
5,7,8,0,0,0,4,1,0.43,0,0.833398776361719
5,7,9,0,0,0,4,2,0.65,0,0.915623903041705
5,7,10,0,0,0,4,3,0.36,1,0.782682211603969
5,7,11,0,0,0,4,2,0.65,0,1.06659679557197
5,7,12,0,0,0,4,4,0.56,1,1.25019317679107
5,7,13,0,0,0,4,2,0.65,1,0.733649473637342
5,7,14,0,0,0,4,4,0.56,1,1.11327475635335
5,7,15,0,0,0,4,2,0.65,1,1.15015561180189
5,7,16,0,0,0,4,1,0.43,0,0.868645950220525
5,7,17,0,0,0,4,3,0.36,1,0.600011026021093
5,7,18,0,0,0,4,1,0.43,1,1.1488884894643
5,7,19,0,0,0,4,3,0.36,1,0.632983479183167
5,7,20,0,0,0,4,1,0.43,1,0.575631310464814
5,7,21,0,0,0,4,3,0.36,0,0.977651902940124
5,7,22,0,0,0,4,4,0.56,0,1.02802038309164
5,7,23,0,0,0,4,2,0.65,0,0.566559699596837
5,7,24,0,0,0,4,2,0.65,0,1.20052966359071
5,7,25,0,0,0,4,2,0.65,1,1.23202356300317
5,7,26,0,0,0,4,2,0.65,1,1.36657664948143
5,7,27,0,0,0,4,3,0.36,0,1.31331235030666
5,7,28,0,0,0,4,1,0.43,1,0.652900554705411
5,7,29,0,0,0,4,4,0.56,1,2.18353538564406
5,7,30,0,0,0,4,1,0.43,1,1.24938469333574
5,7,31,0,0,0,4,3,0.36,0,0.676182352006435
5,7,32,0,0,0,4,4,0.56,0,0.899849534733221
5,7,33,0,0,0,4,2,0.65,1,0.780117762507871
5,7,34,0,0,0,4,4,0.56,1,0.833541881293058
6,1,1,1,1,1,4,3,0.56,0,1.55720862396993
6,1,2,1,1,1,4,1,0.43,1,0.836933288257569
6,1,3,1,1,1,4,2,0.65,1,0.941551672061905
6,1,4,1,1,1,4,4,0.36,1,0.959950605407357
6,1,5,0,1,1,4,1,0.43,1,1.0134028759785
6,1,6,0,1,1,4,1,0.43,1,0.752745749428868
6,1,7,0,1,1,4,1,0.43,1,1.23336517019197
6,1,8,0,1,1,4,4,0.36,1,1.06693754927255
6,1,9,0,1,1,4,1,0.43,0,0.849700110498816
6,1,10,0,1,1,4,2,0.65,0,0.883379876613617
6,1,11,0,1,1,4,3,0.56,0,0.802342108916491
6,1,12,0,1,1,4,3,0.56,1,0.705631729681045
6,1,13,0,1,1,4,4,0.36,0,0.616841671755537
6,1,14,0,1,1,4,1,0.43,0,0.54963228222914
6,1,15,0,1,1,4,1,0.43,1,1.14984594262205
6,1,16,0,1,1,4,2,0.65,0,0.899707016535103
6,1,17,0,1,1,4,4,0.36,1,0.604824683628976
6,1,18,0,1,1,4,2,0.65,0,0.526633176021278
6,1,19,0,1,1,4,3,0.56,1,0.866658318787813
6,1,20,0,1,1,4,1,0.43,1,1.05014971760102
6,1,21,0,1,1,4,3,0.56,1,0.732443053508177
6,1,22,0,1,1,4,2,0.65,0,0.799855663673952
6,1,23,0,1,1,4,4,0.36,0,0.766769137233496
6,1,24,0,1,1,4,1,0.43,0,0.866152173839509
6,1,25,0,1,1,4,1,0.43,1,1.04736122721806
6,1,26,0,1,1,4,3,0.56,0,0.766500815749168
6,1,27,0,1,1,4,4,0.36,1,1.11990918708034
6,1,28,0,1,1,4,2,0.65,0,1.04731870628893
6,1,29,0,1,1,4,1,0.43,1,0.98321920610033
6,1,30,0,1,1,4,2,0.65,1,0.676453312393278
6,1,31,0,1,1,4,1,0.43,0,0.983304834458977
6,1,32,0,1,1,4,2,0.65,0,1.06651087384671
6,1,33,0,1,1,4,1,0.43,0,0.916893664747477
6,1,34,0,1,1,4,2,0.65,1,0.999259256757796
7,6,1,1,0,1,8,6,0.69,0,1.21698671206832
7,6,2,1,0,1,8,8,0.51,1,1.22863567504101
7,6,3,1,0,1,8,3,0.64,1,0.802711307536811
7,6,4,1,0,1,8,2,0.38,0,0.871206294046715
7,6,5,1,0,1,8,1,0.34,1,0.89623643248342
7,6,6,1,0,1,8,7,0.56,1,0.907496842555702
7,6,7,1,0,1,8,4,0.42,0,0.576979076024145
7,6,8,1,0,1,8,5,0.46,1,0.804969019722193
7,6,9,0,0,1,8,7,0.56,1,0.913241267204285
7,6,10,0,0,1,8,4,0.42,1,0.933367428136989
7,6,11,0,0,1,8,6,0.69,1,0.749269007239491
7,6,12,0,0,1,8,8,0.51,0,1.0621972035151
7,6,13,0,0,1,8,1,0.34,0,0.899343389552087
7,6,14,0,0,1,8,7,0.56,0,0.671189813641831
7,6,15,0,0,1,8,3,0.64,0,0.716423823498189
7,6,16,0,0,1,8,2,0.38,1,0.833499066997319
7,6,17,0,0,1,8,3,0.64,0,0.949051476316527
7,6,18,0,0,1,8,4,0.42,0,0.949849109631032
7,6,19,0,0,1,8,5,0.46,0,0.766702276887372
7,6,20,0,0,1,8,6,0.69,0,0.983193400548771
7,6,21,0,0,1,8,8,0.51,1,2.69551469176076
7,6,22,0,0,1,8,1,0.34,0,0.906001866795123
7,6,23,0,0,1,8,2,0.38,0,0.853464235085994
7,6,24,0,0,1,8,3,0.64,0,1.13837586063892
7,6,25,0,0,1,8,7,0.56,1,0.916944689815864
7,6,26,0,0,1,8,3,0.64,1,0.650285667041317
7,6,27,0,0,1,8,5,0.46,0,0.589050021953881
7,6,28,0,0,1,8,1,0.34,1,0.615426166215912
7,6,29,0,0,1,8,8,0.51,0,0.949947347398847
7,6,30,0,0,1,8,6,0.69,0,1.00053517660126
7,6,31,0,0,1,8,7,0.56,1,0.89953194768168
7,6,32,0,0,1,8,2,0.38,1,1.08301044325344
7,6,33,0,0,1,8,5,0.46,0,1.5670784546528
7,6,34,0,0,1,8,4,0.42,1,1.13098954292946
7,6,35,0,0,1,8,7,0.56,0,0.897287138272077
7,6,36,0,0,1,8,1,0.34,0,0.78954273625277
7,6,37,0,0,1,8,5,0.46,0,0.532822750275955
7,6,38,0,0,1,8,7,0.56,0,0.849966085981578
8,2,1,1,1,1,8,5,0.64,1,1.33865743689239
8,2,2,1,1,1,8,8,0.56,1,0.702929161256179
8,2,3,1,1,1,8,6,0.46,0,0.799607282970101
8,2,4,1,1,1,8,3,0.34,0,0.969807239482179
8,2,5,1,1,1,8,7,0.69,1,0.496423407224938
8,2,6,1,1,1,8,4,0.51,1,1.0282561541535
8,2,7,1,1,1,8,1,0.42,0,0.987973921000957
8,2,8,1,1,1,8,2,0.38,0,0.958719259360805
8,2,9,0,1,1,8,6,0.46,0,1.29356330586597
8,2,10,0,1,1,8,1,0.42,1,0.91299552586861
8,2,11,0,1,1,8,8,0.56,0,1.09435501531698
8,2,12,0,1,1,8,2,0.38,1,0.701509843347594
8,2,13,0,1,1,8,3,0.34,0,1.13110508257523
8,2,14,0,1,1,8,4,0.51,0,1.015918352874
8,2,15,0,1,1,8,5,0.64,0,1.15022041928023
8,2,16,0,1,1,8,7,0.69,0,0.899919914081693
8,2,17,0,1,1,8,8,0.56,1,1.05180128733627
8,2,18,0,1,1,8,7,0.69,1,1.10172080551274
8,2,19,0,1,1,8,8,0.56,0,1.08335735532455
8,2,20,0,1,1,8,8,0.56,0,1.11353281396441
8,2,21,0,1,1,8,8,0.56,0,0.883049386786297
8,2,22,0,1,1,8,8,0.56,0,0.816698919050395
8,2,23,0,1,1,8,5,0.64,0,1.28256417950615
8,2,24,0,1,1,8,6,0.46,1,1.35000992636196
8,2,25,0,1,1,8,5,0.64,1,0.949751751264557
8,2,26,0,1,1,8,6,0.46,1,0.699935397598892
8,2,27,0,1,1,8,5,0.64,1,0.853080667322502
8,2,28,0,1,1,8,6,0.46,1,0.77730903797783
8,2,29,0,1,1,8,5,0.64,0,1.15044094156474
8,2,30,0,1,1,8,6,0.46,1,0.877963302424178
8,2,31,0,1,1,8,5,0.64,1,1.13055700296536
8,2,32,0,1,1,8,5,0.64,1,0.915119810728356
8,2,33,0,1,1,8,6,0.46,0,0.750179833965376
8,2,34,0,1,1,8,7,0.69,0,0.966366273816675
8,2,35,0,1,1,8,7,0.69,1,1.04285313375294
8,2,36,0,1,1,8,7,0.69,1,0.800132489297539
8,2,37,0,1,1,8,4,0.51,0,1.19967279443517
8,2,38,0,1,1,8,5,0.64,0,1.03379237325862
