"text","rt","key_press","block_duration","timing_post_trial","trial_id","trial_type","trial_index","time_elapsed","internal_node_id","exp_id","full_screen","focus_shifts","view_history","stimulus","possible_responses","stim_duration","correct_response","condition","exp_stage","responses"
"<div class = centerbox><p class = center-block-text>Welcome to the experiment. Press <strong>enter</strong> to begin.</p></div>","1021","13","1021","0","instruction","poldrack-text","0","1022","0.0-0.0-0.0","multisource","true","0","","","","","","","",""
"","59187","","","","instruction","poldrack-instructions","1","60209","0.0-0.0-1.0","multisource","true","0","[{""page_index"":0,""viewing_time"":14531},{""page_index"":1,""viewing_time"":37377},{""page_index"":0,""viewing_time"":6599},{""page_index"":1,""viewing_time"":680}]","","","","","","",""
"","-1","-1","1750","500","large_middle","poldrack-single-stim","2","62963","0.0-1.0-0.0","multisource","true","0","","<div class = centerbox><div class = center-ms-text ><span class = big>1</span>xx</div></div>","49,50,51,97,98,99","1750","49,97","practice_control","practice",""
"","-1","-1","1750","500","small_middle","poldrack-single-stim","3","65215","0.0-1.0-1.0","multisource","true","0","","<div class = centerbox><div class = center-ms-text >xx<span class = big>3</span></div></div>","49,50,51,97,98,99","1750","51,99","practice_control","practice",""
"","1240","49","1750","500","small_middle","poldrack-single-stim","4","67468","0.0-1.0-2.0","multisource","true","0","","<div class = centerbox><div class = center-ms-text >xx<span class = big>3</span></div></div>","49,50,51,97,98,99","1750","51,99","practice_control","practice",""
"","-1","-1","1750","500","small_middle","poldrack-single-stim","5","69719","0.0-1.0-3.0","multisource","true","0","","<div class = centerbox><div class = center-ms-text >xx<span class = big>3</span></div></div>","49,50,51,97,98,99","1750","51,99","practice_control","practice",""
"","-1","-1","1750","500","large_right","poldrack-single-stim","6","71971","0.0-1.0-4.0","multisource","true","0","","<div class = centerbox><div class = center-ms-text >x<span class = big>2</span>x</div></div>","49,50,51,97,98,99","1750","50,98","practice_control","practice",""
"","439","49","1750","500","small_middle","poldrack-single-stim","7","74221","0.0-1.0-5.0","multisource","true","0","","<div class = centerbox><div class = center-ms-text >xx<span class = big>3</span></div></div>","49,50,51,97,98,99","1750","51,99","practice_control","practice",""
"","475","50","1750","500","large_right","poldrack-single-stim","8","76474","0.0-1.0-6.0","multisource","true","0","","<div class = centerbox><div class = center-ms-text >x<span class = big>2</span>x</div></div>","49,50,51,97,98,99","1750","50,98","practice_control","practice",""
"","406","51","1750","500","large_middle","poldrack-single-stim","9","78725","0.0-1.0-7.0","multisource","true","0","","<div class = centerbox><div class = center-ms-text ><span class = big>1</span>xx</div></div>","49,50,51,97,98,99","1750","49,97","practice_control","practice",""
"","525","50","1750","500","large_right","poldrack-single-stim","10","80976","0.0-1.0-8.0","multisource","true","0","","<div class = centerbox><div class = center-ms-text >x<span class = big>2</span>x</div></div>","49,50,51,97,98,99","1750","50,98","practice_control","practice",""
"","634","49","1750","500","large_middle","poldrack-single-stim","11","83227","0.0-1.0-9.0","multisource","true","0","","<div class = centerbox><div class = center-ms-text ><span class = big>1</span>xx</div></div>","49,50,51,97,98,99","1750","49,97","practice_control","practice",""
"","693","49","1750","500","large_middle","poldrack-single-stim","12","85478","0.0-1.0-10.0","multisource","true","0","","<div class = centerbox><div class = center-ms-text ><span class = big>1</span>xx</div></div>","49,50,51,97,98,99","1750","49,97","practice_control","practice",""
"","563","50","1750","500","large_right","poldrack-single-stim","13","87729","0.0-1.0-11.0","multisource","true","0","","<div class = centerbox><div class = center-ms-text >x<span class = big>2</span>x</div></div>","49,50,51,97,98,99","1750","50,98","practice_control","practice",""
"","624","50","1750","500","large_right","poldrack-single-stim","14","89980","0.0-1.0-12.0","multisource","true","0","","<div class = centerbox><div class = center-ms-text >x<span class = big>2</span>x</div></div>","49,50,51,97,98,99","1750","50,98","practice_control","practice",""
"","597","51","1750","500","small_middle","poldrack-single-stim","15","92232","0.0-1.0-13.0","multisource","true","0","","<div class = centerbox><div class = center-ms-text >xx<span class = big>3</span></div></div>","49,50,51,97,98,99","1750","51,99","practice_control","practice",""
"","665","50","1750","500","large_right","poldrack-single-stim","16","94483","0.0-1.0-14.0","multisource","true","0","","<div class = centerbox><div class = center-ms-text >x<span class = big>2</span>x</div></div>","49,50,51,97,98,99","1750","50,98","practice_control","practice",""
"","575","50","1750","500","small_middle","poldrack-single-stim","17","96733","0.0-1.0-15.0","multisource","true","0","","<div class = centerbox><div class = center-ms-text >xx<span class = big>3</span></div></div>","49,50,51,97,98,99","1750","51,99","practice_control","practice",""
"","628","49","1750","500","large_middle","poldrack-single-stim","18","98985","0.0-1.0-16.0","multisource","true","0","","<div class = centerbox><div class = center-ms-text ><span class = big>1</span>xx</div></div>","49,50,51,97,98,99","1750","49,97","practice_control","practice",""
"","607","49","1750","500","large_middle","poldrack-single-stim","19","101236","0.0-1.0-17.0","multisource","true","0","","<div class = centerbox><div class = center-ms-text ><span class = big>1</span>xx</div></div>","49,50,51,97,98,99","1750","49,97","practice_control","practice",""
"","614","50","1750","500","large_right","poldrack-single-stim","20","103487","0.0-1.0-18.0","multisource","true","0","","<div class = centerbox><div class = center-ms-text >x<span class = big>2</span>x</div></div>","49,50,51,97,98,99","1750","50,98","practice_control","practice",""
"","562","51","1750","500","small_middle","poldrack-single-stim","21","105738","0.0-1.0-19.0","multisource","true","0","","<div class = centerbox><div class = center-ms-text >xx<span class = big>3</span></div></div>","49,50,51,97,98,99","1750","51,99","practice_control","practice",""
"","1310","50","1750","500","large_middle","poldrack-single-stim","22","107989","0.0-2.0-0.0","multisource","true","0","","<div class = centerbox><div class = center-ms-text >3<span class = big>1</span>2</div></div>","49,50,51,97,98,99","1750","49,97","practice_interference","practice",""
"","1612","51","1750","500","small_middle","poldrack-single-stim","23","110241","0.0-2.0-1.0","multisource","true","0","","<div class = centerbox><div class = center-ms-text >2<span class = small>3</span>2</div></div>","49,50,51,97,98,99","1750","51,99","practice_interference","practice",""
"","1337","49","1750","500","large_right","poldrack-single-stim","24","112491","0.0-2.0-2.0","multisource","true","0","","<div class = centerbox><div class = center-ms-text >22<span class = big>1</span></div></div>","49,50,51,97,98,99","1750","49,97","practice_interference","practice",""
"","1238","51","1750","500","small_left","poldrack-single-stim","25","114743","0.0-2.0-3.0","multisource","true","0","","<div class = centerbox><div class = center-ms-text ><span class = small>3</span>22</div></div>","49,50,51,97,98,99","1750","51,99","practice_interference","practice",""
"","1042","49","1750","500","large_left","poldrack-single-stim","26","116995","0.0-2.0-4.0","multisource","true","0","","<div class = centerbox><div class = center-ms-text ><span class = big>3</span>11</div></div>","49,50,51,97,98,99","1750","51,99","practice_interference","practice",""
"","863","51","1750","500","large_left","poldrack-single-stim","27","119245","0.0-2.0-5.0","multisource","true","0","","<div class = centerbox><div class = center-ms-text ><span class = big>3</span>22</div></div>","49,50,51,97,98,99","1750","51,99","practice_interference","practice",""
"","1307","49","1750","500","large_right","poldrack-single-stim","28","121497","0.0-2.0-6.0","multisource","true","0","","<div class = centerbox><div class = center-ms-text >33<span class = big>1</span></div></div>","49,50,51,97,98,99","1750","49,97","practice_interference","practice",""
"","1496","49","1750","500","small_middle","poldrack-single-stim","29","123748","0.0-2.0-7.0","multisource","true","0","","<div class = centerbox><div class = center-ms-text >2<span class = small>1</span>2</div></div>","49,50,51,97,98,99","1750","49,97","practice_interference","practice",""
"","1086","49","1750","500","small_right","poldrack-single-stim","30","125998","0.0-2.0-8.0","multisource","true","0","","<div class = centerbox><div class = center-ms-text >22<span class = small>1</span></div></div>","49,50,51,97,98,99","1750","49,97","practice_interference","practice",""
"","1346","50","1750","500","small_right","poldrack-single-stim","31","128249","0.0-2.0-9.0","multisource","true","0","","<div class = centerbox><div class = center-ms-text >11<span class = small>2</span></div></div>","49,50,51,97,98,99","1750","50,98","practice_interference","practice",""
"","1368","49","1750","500","large_middle","poldrack-single-stim","32","130501","0.0-2.0-10.0","multisource","true","0","","<div class = centerbox><div class = center-ms-text >2<span class = big>1</span>2</div></div>","49,50,51,97,98,99","1750","49,97","practice_interference","practice",""
"","1204","50","1750","500","small_right","poldrack-single-stim","33","132752","0.0-2.0-11.0","multisource","true","0","","<div class = centerbox><div class = center-ms-text >33<span class = small>2</span></div></div>","49,50,51,97,98,99","1750","50,98","practice_interference","practice",""
"","1457","50","1750","500","small_left","poldrack-single-stim","34","135002","0.0-2.0-12.0","multisource","true","0","","<div class = centerbox><div class = center-ms-text ><span class = small>2</span>11</div></div>","49,50,51,97,98,99","1750","50,98","practice_interference","practice",""
"","1448","50","1750","500","large_left","poldrack-single-stim","35","137255","0.0-2.0-13.0","multisource","true","0","","<div class = centerbox><div class = center-ms-text ><span class = big>2</span>33</div></div>","49,50,51,97,98,99","1750","50,98","practice_interference","practice",""
"","876","51","1750","500","large_middle","poldrack-single-stim","36","139506","0.0-2.0-14.0","multisource","true","0","","<div class = centerbox><div class = center-ms-text >2<span class = big>3</span>2</div></div>","49,50,51,97,98,99","1750","51,99","practice_interference","practice",""
"","-1","-1","1750","500","small_middle","poldrack-single-stim","37","141756","0.0-2.0-15.0","multisource","true","0","","<div class = centerbox><div class = center-ms-text >3<span class = small>1</span>2</div></div>","49,50,51,97,98,99","1750","49,97","practice_interference","practice",""
"","1510","51","1750","500","small_left","poldrack-single-stim","38","144008","0.0-2.0-16.0","multisource","true","0","","<div class = centerbox><div class = center-ms-text ><span class = small>3</span>11</div></div>","49,50,51,97,98,99","1750","51,99","practice_interference","practice",""
"","1578","49","1750","500","small_right","poldrack-single-stim","39","146259","0.0-2.0-17.0","multisource","true","0","","<div class = centerbox><div class = center-ms-text >33<span class = small>1</span></div></div>","49,50,51,97,98,99","1750","49,97","practice_interference","practice",""
"","1295","50","1750","500","large_right","poldrack-single-stim","40","148510","0.0-2.0-18.0","multisource","true","0","","<div class = centerbox><div class = center-ms-text >11<span class = big>2</span></div></div>","49,50,51,97,98,99","1750","50,98","practice_interference","practice",""
"","1524","50","1750","500","large_right","poldrack-single-stim","41","150760","0.0-2.0-19.0","multisource","true","0","","<div class = centerbox><div class = center-ms-text >33<span class = big>2</span></div></div>","49,50,51,97,98,99","1750","50,98","practice_interference","practice",""
"<div class = centerbox><p class = center-block-text>Starting test. Press <strong>enter</strong> to begin.</p></div>","2505","13","2505","1000","test_intro","poldrack-text","42","153767","0.0-3.0","multisource","true","0","","","","","","","",""
"","1079","50","1750","500","large_right","poldrack-single-stim","43","156518","0.0-4.0-0.0","multisource","true","0","","<div class = centerbox><div class = center-ms-text >x<span class = big>2</span>x</div></div>","49,50,51,97,98,99","1750","50,98","control","test",""
"","732","51","1750","500","small_middle","poldrack-single-stim","44","158770","0.0-4.0-1.0","multisource","true","0","","<div class = centerbox><div class = center-ms-text >xx<span class = big>3</span></div></div>","49,50,51,97,98,99","1750","51,99","control","test",""
"","569","49","1750","500","large_middle","poldrack-single-stim","45","161021","0.0-4.0-2.0","multisource","true","0","","<div class = centerbox><div class = center-ms-text ><span class = big>1</span>xx</div></div>","49,50,51,97,98,99","1750","49,97","control","test",""
"","581","50","1750","500","large_right","poldrack-single-stim","46","163272","0.0-4.0-3.0","multisource","true","0","","<div class = centerbox><div class = center-ms-text >x<span class = big>2</span>x</div></div>","49,50,51,97,98,99","1750","50,98","control","test",""
"","585","50","1750","500","large_right","poldrack-single-stim","47","165524","0.0-4.0-4.0","multisource","true","0","","<div class = centerbox><div class = center-ms-text >x<span class = big>2</span>x</div></div>","49,50,51,97,98,99","1750","50,98","control","test",""
"","703","51","1750","500","small_middle","poldrack-single-stim","48","167774","0.0-4.0-5.0","multisource","true","0","","<div class = centerbox><div class = center-ms-text >xx<span class = big>3</span></div></div>","49,50,51,97,98,99","1750","51,99","control","test",""
"","676","49","1750","500","large_middle","poldrack-single-stim","49","170025","0.0-4.0-6.0","multisource","true","0","","<div class = centerbox><div class = center-ms-text ><span class = big>1</span>xx</div></div>","49,50,51,97,98,99","1750","49,97","control","test",""
"","744","51","1750","500","small_middle","poldrack-single-stim","50","172276","0.0-4.0-7.0","multisource","true","0","","<div class = centerbox><div class = center-ms-text >xx<span class = big>3</span></div></div>","49,50,51,97,98,99","1750","51,99","control","test",""
"","597","50","1750","500","large_right","poldrack-single-stim","51","174527","0.0-4.0-8.0","multisource","true","0","","<div class = centerbox><div class = center-ms-text >x<span class = big>2</span>x</div></div>","49,50,51,97,98,99","1750","50,98","control","test",""
"","459","49","1750","500","large_middle","poldrack-single-stim","52","176777","0.0-4.0-9.0","multisource","true","0","","<div class = centerbox><div class = center-ms-text ><span class = big>1</span>xx</div></div>","49,50,51,97,98,99","1750","49,97","control","test",""
"","664","49","1750","500","large_middle","poldrack-single-stim","53","179029","0.0-4.0-10.0","multisource","true","0","","<div class = centerbox><div class = center-ms-text ><span class = big>1</span>xx</div></div>","49,50,51,97,98,99","1750","49,97","control","test",""
"","716","51","1750","500","small_middle","poldrack-single-stim","54","181280","0.0-4.0-11.0","multisource","true","0","","<div class = centerbox><div class = center-ms-text >xx<span class = big>3</span></div></div>","49,50,51,97,98,99","1750","51,99","control","test",""
"","563","50","1750","500","large_right","poldrack-single-stim","55","183530","0.0-4.0-12.0","multisource","true","0","","<div class = centerbox><div class = center-ms-text >x<span class = big>2</span>x</div></div>","49,50,51,97,98,99","1750","50,98","control","test",""
"","752","51","1750","500","small_middle","poldrack-single-stim","56","185781","0.0-4.0-13.0","multisource","true","0","","<div class = centerbox><div class = center-ms-text >xx<span class = big>3</span></div></div>","49,50,51,97,98,99","1750","51,99","control","test",""
"","604","50","1750","500","large_right","poldrack-single-stim","57","188032","0.0-4.0-14.0","multisource","true","0","","<div class = centerbox><div class = center-ms-text >x<span class = big>2</span>x</div></div>","49,50,51,97,98,99","1750","50,98","control","test",""
"","746","51","1750","500","small_middle","poldrack-single-stim","58","190283","0.0-4.0-15.0","multisource","true","0","","<div class = centerbox><div class = center-ms-text >xx<span class = big>3</span></div></div>","49,50,51,97,98,99","1750","51,99","control","test",""
"","735","50","1750","500","large_right","poldrack-single-stim","59","192534","0.0-4.0-16.0","multisource","true","0","","<div class = centerbox><div class = center-ms-text >x<span class = big>2</span>x</div></div>","49,50,51,97,98,99","1750","50,98","control","test",""
"","643","51","1750","500","small_middle","poldrack-single-stim","60","194785","0.0-4.0-17.0","multisource","true","0","","<div class = centerbox><div class = center-ms-text >xx<span class = big>3</span></div></div>","49,50,51,97,98,99","1750","51,99","control","test",""
"","753","49","1750","500","large_middle","poldrack-single-stim","61","197037","0.0-4.0-18.0","multisource","true","0","","<div class = centerbox><div class = center-ms-text ><span class = big>1</span>xx</div></div>","49,50,51,97,98,99","1750","49,97","control","test",""
"","749","49","1750","500","large_middle","poldrack-single-stim","62","199287","0.0-4.0-19.0","multisource","true","0","","<div class = centerbox><div class = center-ms-text ><span class = big>1</span>xx</div></div>","49,50,51,97,98,99","1750","49,97","control","test",""
"","906","51","1750","500","small_middle","poldrack-single-stim","63","201538","0.0-4.0-20.0","multisource","true","0","","<div class = centerbox><div class = center-ms-text >xx<span class = big>3</span></div></div>","49,50,51,97,98,99","1750","51,99","control","test",""
"","655","49","1750","500","large_middle","poldrack-single-stim","64","203790","0.0-4.0-21.0","multisource","true","0","","<div class = centerbox><div class = center-ms-text ><span class = big>1</span>xx</div></div>","49,50,51,97,98,99","1750","49,97","control","test",""
"","797","49","1750","500","large_middle","poldrack-single-stim","65","206040","0.0-4.0-22.0","multisource","true","0","","<div class = centerbox><div class = center-ms-text ><span class = big>1</span>xx</div></div>","49,50,51,97,98,99","1750","49,97","control","test",""
"","625","50","1750","500","large_right","poldrack-single-stim","66","208291","0.0-4.0-23.0","multisource","true","0","","<div class = centerbox><div class = center-ms-text >x<span class = big>2</span>x</div></div>","49,50,51,97,98,99","1750","50,98","control","test",""
"","1526","51","1750","500","large_middle","poldrack-single-stim","67","210543","0.0-6.0-0.0","multisource","true","0","","<div class = centerbox><div class = center-ms-text >2<span class = big>3</span>2</div></div>","49,50,51,97,98,99","1750","51,99","interference","test",""
"","1004","49","1750","500","small_left","poldrack-single-stim","68","212793","0.0-6.0-1.0","multisource","true","0","","<div class = centerbox><div class = center-ms-text ><span class = small>3</span>11</div></div>","49,50,51,97,98,99","1750","51,99","interference","test",""
"","1161","49","1750","500","small_right","poldrack-single-stim","69","215044","0.0-6.0-2.0","multisource","true","0","","<div class = centerbox><div class = center-ms-text >33<span class = small>1</span></div></div>","49,50,51,97,98,99","1750","49,97","interference","test",""
"","1493","49","1750","500","large_middle","poldrack-single-stim","70","217296","0.0-6.0-3.0","multisource","true","0","","<div class = centerbox><div class = center-ms-text >3<span class = big>1</span>2</div></div>","49,50,51,97,98,99","1750","49,97","interference","test",""
"","1377","49","1750","500","small_right","poldrack-single-stim","71","219548","0.0-6.0-4.0","multisource","true","0","","<div class = centerbox><div class = center-ms-text >22<span class = small>1</span></div></div>","49,50,51,97,98,99","1750","49,97","interference","test",""
"","1143","49","1750","500","large_right","poldrack-single-stim","72","221798","0.0-6.0-5.0","multisource","true","0","","<div class = centerbox><div class = center-ms-text >22<span class = big>1</span></div></div>","49,50,51,97,98,99","1750","49,97","interference","test",""
"","804","50","1750","500","small_right","poldrack-single-stim","73","224049","0.0-6.0-6.0","multisource","true","0","","<div class = centerbox><div class = center-ms-text >11<span class = small>2</span></div></div>","49,50,51,97,98,99","1750","50,98","interference","test",""
"","1417","51","1750","500","large_left","poldrack-single-stim","74","226301","0.0-6.0-7.0","multisource","true","0","","<div class = centerbox><div class = center-ms-text ><span class = big>3</span>22</div></div>","49,50,51,97,98,99","1750","51,99","interference","test",""
"","1407","49","1750","500","small_middle","poldrack-single-stim","75","228552","0.0-6.0-8.0","multisource","true","0","","<div class = centerbox><div class = center-ms-text >3<span class = small>1</span>2</div></div>","49,50,51,97,98,99","1750","49,97","interference","test",""
"","1593","50","1750","500","large_right","poldrack-single-stim","76","230804","0.0-6.0-9.0","multisource","true","0","","<div class = centerbox><div class = center-ms-text >11<span class = big>2</span></div></div>","49,50,51,97,98,99","1750","50,98","interference","test",""
"","1301","50","1750","500","small_left","poldrack-single-stim","77","233056","0.0-6.0-10.0","multisource","true","0","","<div class = centerbox><div class = center-ms-text ><span class = small>2</span>11</div></div>","49,50,51,97,98,99","1750","50,98","interference","test",""
"","930","51","1750","500","small_middle","poldrack-single-stim","78","235306","0.0-6.0-11.0","multisource","true","0","","<div class = centerbox><div class = center-ms-text >2<span class = small>3</span>2</div></div>","49,50,51,97,98,99","1750","51,99","interference","test",""
"","903","49","1750","500","large_right","poldrack-single-stim","79","237558","0.0-6.0-12.0","multisource","true","0","","<div class = centerbox><div class = center-ms-text >33<span class = big>1</span></div></div>","49,50,51,97,98,99","1750","49,97","interference","test",""
"","1363","51","1750","500","small_left","poldrack-single-stim","80","239809","0.0-6.0-13.0","multisource","true","0","","<div class = centerbox><div class = center-ms-text ><span class = small>3</span>22</div></div>","49,50,51,97,98,99","1750","51,99","interference","test",""
"","1289","50","1750","500","small_right","poldrack-single-stim","81","242061","0.0-6.0-14.0","multisource","true","0","","<div class = centerbox><div class = center-ms-text >33<span class = small>2</span></div></div>","49,50,51,97,98,99","1750","50,98","interference","test",""
"","1613","50","1750","500","large_right","poldrack-single-stim","82","244312","0.0-6.0-15.0","multisource","true","0","","<div class = centerbox><div class = center-ms-text >33<span class = big>2</span></div></div>","49,50,51,97,98,99","1750","50,98","interference","test",""
"","1089","50","1750","500","large_left","poldrack-single-stim","83","246564","0.0-6.0-16.0","multisource","true","0","","<div class = centerbox><div class = center-ms-text ><span class = big>2</span>11</div></div>","49,50,51,97,98,99","1750","50,98","interference","test",""
"","1125","51","1750","500","large_middle","poldrack-single-stim","84","248815","0.0-6.0-17.0","multisource","true","0","","<div class = centerbox><div class = center-ms-text >1<span class = big>3</span>1</div></div>","49,50,51,97,98,99","1750","51,99","interference","test",""
"","723","51","1750","500","large_left","poldrack-single-stim","85","251065","0.0-6.0-18.0","multisource","true","0","","<div class = centerbox><div class = center-ms-text ><span class = big>3</span>11</div></div>","49,50,51,97,98,99","1750","51,99","interference","test",""
"","1057","49","1750","500","large_middle","poldrack-single-stim","86","253317","0.0-6.0-19.0","multisource","true","0","","<div class = centerbox><div class = center-ms-text >2<span class = big>1</span>2</div></div>","49,50,51,97,98,99","1750","49,97","interference","test",""
"","1261","51","1750","500","small_middle","poldrack-single-stim","87","255568","0.0-6.0-20.0","multisource","true","0","","<div class = centerbox><div class = center-ms-text >1<span class = small>3</span>1</div></div>","49,50,51,97,98,99","1750","51,99","interference","test",""
"","1036","50","1750","500","large_left","poldrack-single-stim","88","257821","0.0-6.0-21.0","multisource","true","0","","<div class = centerbox><div class = center-ms-text ><span class = big>2</span>33</div></div>","49,50,51,97,98,99","1750","50,98","interference","test",""
"","840","49","1750","500","small_middle","poldrack-single-stim","89","260072","0.0-6.0-22.0","multisource","true","0","","<div class = centerbox><div class = center-ms-text >2<span class = small>1</span>2</div></div>","49,50,51,97,98,99","1750","49,97","interference","test",""
"","963","50","1750","500","small_left","poldrack-single-stim","90","262323","0.0-6.0-23.0","multisource","true","0","","<div class = centerbox><div class = center-ms-text ><span class = small>2</span>33</div></div>","49,50,51,97,98,99","1750","50,98","interference","test",""
"","824","49","1750","500","large_middle","poldrack-single-stim","91","264574","0.0-8.0-0.0","multisource","true","0","","<div class = centerbox><div class = center-ms-text ><span class = big>1</span>xx</div></div>","49,50,51,97,98,99","1750","49,97","control","test",""
"","1055","51","1750","500","small_middle","poldrack-single-stim","92","266825","0.0-8.0-1.0","multisource","true","0","","<div class = centerbox><div class = center-ms-text >xx<span class = big>3</span></div></div>","49,50,51,97,98,99","1750","51,99","control","test",""
"","866","51","1750","500","small_middle","poldrack-single-stim","93","269077","0.0-8.0-2.0","multisource","true","0","","<div class = centerbox><div class = center-ms-text >xx<span class = big>3</span></div></div>","49,50,51,97,98,99","1750","51,99","control","test",""
"","647","50","1750","500","large_right","poldrack-single-stim","94","271327","0.0-8.0-3.0","multisource","true","0","","<div class = centerbox><div class = center-ms-text >x<span class = big>2</span>x</div></div>","49,50,51,97,98,99","1750","50,98","control","test",""
"","564","50","1750","500","large_right","poldrack-single-stim","95","273578","0.0-8.0-4.0","multisource","true","0","","<div class = centerbox><div class = center-ms-text >x<span class = big>2</span>x</div></div>","49,50,51,97,98,99","1750","50,98","control","test",""
"","632","51","1750","500","small_middle","poldrack-single-stim","96","275830","0.0-8.0-5.0","multisource","true","0","","<div class = centerbox><div class = center-ms-text >xx<span class = big>3</span></div></div>","49,50,51,97,98,99","1750","51,99","control","test",""
"","662","49","1750","500","large_middle","poldrack-single-stim","97","278081","0.0-8.0-6.0","multisource","true","0","","<div class = centerbox><div class = center-ms-text ><span class = big>1</span>xx</div></div>","49,50,51,97,98,99","1750","49,97","control","test",""
"","578","51","1750","500","small_middle","poldrack-single-stim","98","280333","0.0-8.0-7.0","multisource","true","0","","<div class = centerbox><div class = center-ms-text >xx<span class = big>3</span></div></div>","49,50,51,97,98,99","1750","51,99","control","test",""
"","630","51","1750","500","small_middle","poldrack-single-stim","99","282584","0.0-8.0-8.0","multisource","true","0","","<div class = centerbox><div class = center-ms-text >xx<span class = big>3</span></div></div>","49,50,51,97,98,99","1750","51,99","control","test",""
"","683","50","1750","500","large_right","poldrack-single-stim","100","284835","0.0-8.0-9.0","multisource","true","0","","<div class = centerbox><div class = center-ms-text >x<span class = big>2</span>x</div></div>","49,50,51,97,98,99","1750","50,98","control","test",""
"","729","49","1750","500","large_middle","poldrack-single-stim","101","287085","0.0-8.0-10.0","multisource","true","0","","<div class = centerbox><div class = center-ms-text ><span class = big>1</span>xx</div></div>","49,50,51,97,98,99","1750","49,97","control","test",""
"","662","49","1750","500","large_middle","poldrack-single-stim","102","289337","0.0-8.0-11.0","multisource","true","0","","<div class = centerbox><div class = center-ms-text ><span class = big>1</span>xx</div></div>","49,50,51,97,98,99","1750","49,97","control","test",""
"","667","50","1750","500","large_right","poldrack-single-stim","103","291588","0.0-8.0-12.0","multisource","true","0","","<div class = centerbox><div class = center-ms-text >x<span class = big>2</span>x</div></div>","49,50,51,97,98,99","1750","50,98","control","test",""
"","607","50","1750","500","large_right","poldrack-single-stim","104","293839","0.0-8.0-13.0","multisource","true","0","","<div class = centerbox><div class = center-ms-text >x<span class = big>2</span>x</div></div>","49,50,51,97,98,99","1750","50,98","control","test",""
"","788","49","1750","500","large_middle","poldrack-single-stim","105","296090","0.0-8.0-14.0","multisource","true","0","","<div class = centerbox><div class = center-ms-text ><span class = big>1</span>xx</div></div>","49,50,51,97,98,99","1750","49,97","control","test",""
"","753","51","1750","500","small_middle","poldrack-single-stim","106","298341","0.0-8.0-15.0","multisource","true","0","","<div class = centerbox><div class = center-ms-text >xx<span class = big>3</span></div></div>","49,50,51,97,98,99","1750","51,99","control","test",""
"","662","49","1750","500","large_middle","poldrack-single-stim","107","300593","0.0-8.0-16.0","multisource","true","0","","<div class = centerbox><div class = center-ms-text ><span class = big>1</span>xx</div></div>","49,50,51,97,98,99","1750","49,97","control","test",""
"","697","50","1750","500","large_right","poldrack-single-stim","108","302844","0.0-8.0-17.0","multisource","true","0","","<div class = centerbox><div class = center-ms-text >x<span class = big>2</span>x</div></div>","49,50,51,97,98,99","1750","50,98","control","test",""
"","591","49","1750","500","large_middle","poldrack-single-stim","109","305095","0.0-8.0-18.0","multisource","true","0","","<div class = centerbox><div class = center-ms-text ><span class = big>1</span>xx</div></div>","49,50,51,97,98,99","1750","49,97","control","test",""
"","765","51","1750","500","small_middle","poldrack-single-stim","110","307345","0.0-8.0-19.0","multisource","true","0","","<div class = centerbox><div class = center-ms-text >xx<span class = big>3</span></div></div>","49,50,51,97,98,99","1750","51,99","control","test",""
"","643","50","1750","500","large_right","poldrack-single-stim","111","309596","0.0-8.0-20.0","multisource","true","0","","<div class = centerbox><div class = center-ms-text >x<span class = big>2</span>x</div></div>","49,50,51,97,98,99","1750","50,98","control","test",""
"","718","50","1750","500","large_right","poldrack-single-stim","112","311849","0.0-8.0-21.0","multisource","true","0","","<div class = centerbox><div class = center-ms-text >x<span class = big>2</span>x</div></div>","49,50,51,97,98,99","1750","50,98","control","test",""
"","699","51","1750","500","small_middle","poldrack-single-stim","113","314099","0.0-8.0-22.0","multisource","true","0","","<div class = centerbox><div class = center-ms-text >xx<span class = big>3</span></div></div>","49,50,51,97,98,99","1750","51,99","control","test",""
"","769","49","1750","500","large_middle","poldrack-single-stim","114","316350","0.0-8.0-23.0","multisource","true","0","","<div class = centerbox><div class = center-ms-text ><span class = big>1</span>xx</div></div>","49,50,51,97,98,99","1750","49,97","control","test",""
"","1158","49","1750","500","small_middle","poldrack-single-stim","115","318602","0.0-9.0-0.0","multisource","true","0","","<div class = centerbox><div class = center-ms-text >2<span class = small>1</span>2</div></div>","49,50,51,97,98,99","1750","49,97","interference","test",""
"","1123","50","1750","500","large_left","poldrack-single-stim","116","320853","0.0-9.0-1.0","multisource","true","0","","<div class = centerbox><div class = center-ms-text ><span class = big>2</span>11</div></div>","49,50,51,97,98,99","1750","50,98","interference","test",""
"","1223","50","1750","500","small_left","poldrack-single-stim","117","323104","0.0-9.0-2.0","multisource","true","0","","<div class = centerbox><div class = center-ms-text ><span class = small>2</span>33</div></div>","49,50,51,97,98,99","1750","50,98","interference","test",""
"","1011","51","1750","500","small_middle","poldrack-single-stim","118","325355","0.0-9.0-3.0","multisource","true","0","","<div class = centerbox><div class = center-ms-text >2<span class = small>3</span>2</div></div>","49,50,51,97,98,99","1750","51,99","interference","test",""
"","1081","49","1750","500","small_right","poldrack-single-stim","119","327606","0.0-9.0-4.0","multisource","true","0","","<div class = centerbox><div class = center-ms-text >22<span class = small>1</span></div></div>","49,50,51,97,98,99","1750","49,97","interference","test",""
"","846","50","1750","500","large_right","poldrack-single-stim","120","329857","0.0-9.0-5.0","multisource","true","0","","<div class = centerbox><div class = center-ms-text >33<span class = big>2</span></div></div>","49,50,51,97,98,99","1750","50,98","interference","test",""
"","1187","51","1750","500","small_left","poldrack-single-stim","121","332109","0.0-9.0-6.0","multisource","true","0","","<div class = centerbox><div class = center-ms-text ><span class = small>3</span>11</div></div>","49,50,51,97,98,99","1750","51,99","interference","test",""
"","1039","49","1750","500","large_right","poldrack-single-stim","122","334361","0.0-9.0-7.0","multisource","true","0","","<div class = centerbox><div class = center-ms-text >22<span class = big>1</span></div></div>","49,50,51,97,98,99","1750","49,97","interference","test",""
"","956","49","1750","500","large_middle","poldrack-single-stim","123","336611","0.0-9.0-8.0","multisource","true","0","","<div class = centerbox><div class = center-ms-text >3<span class = big>1</span>2</div></div>","49,50,51,97,98,99","1750","49,97","interference","test",""
"","913","49","1750","500","large_right","poldrack-single-stim","124","338863","0.0-9.0-9.0","multisource","true","0","","<div class = centerbox><div class = center-ms-text >33<span class = big>1</span></div></div>","49,50,51,97,98,99","1750","49,97","interference","test",""
"","1092","50","1750","500","small_left","poldrack-single-stim","125","341115","0.0-9.0-10.0","multisource","true","0","","<div class = centerbox><div class = center-ms-text ><span class = small>2</span>11</div></div>","49,50,51,97,98,99","1750","50,98","interference","test",""
"","946","50","1750","500","large_right","poldrack-single-stim","126","343365","0.0-9.0-11.0","multisource","true","0","","<div class = centerbox><div class = center-ms-text >11<span class = big>2</span></div></div>","49,50,51,97,98,99","1750","50,98","interference","test",""
"","767","51","1750","500","small_middle","poldrack-single-stim","127","345616","0.0-9.0-12.0","multisource","true","0","","<div class = centerbox><div class = center-ms-text >1<span class = small>3</span>1</div></div>","49,50,51,97,98,99","1750","51,99","interference","test",""
"","827","50","1750","500","large_left","poldrack-single-stim","128","347868","0.0-9.0-13.0","multisource","true","0","","<div class = centerbox><div class = center-ms-text ><span class = big>2</span>33</div></div>","49,50,51,97,98,99","1750","50,98","interference","test",""
"","1113","49","1750","500","small_middle","poldrack-single-stim","129","350120","0.0-9.0-14.0","multisource","true","0","","<div class = centerbox><div class = center-ms-text >3<span class = small>1</span>2</div></div>","49,50,51,97,98,99","1750","49,97","interference","test",""
"","1029","51","1750","500","large_middle","poldrack-single-stim","130","352370","0.0-9.0-15.0","multisource","true","0","","<div class = centerbox><div class = center-ms-text >1<span class = big>3</span>1</div></div>","49,50,51,97,98,99","1750","51,99","interference","test",""
"","1369","51","1750","500","small_right","poldrack-single-stim","131","354622","0.0-9.0-16.0","multisource","true","0","","<div class = centerbox><div class = center-ms-text >33<span class = small>1</span></div></div>","49,50,51,97,98,99","1750","49,97","interference","test",""
"","1237","51","1750","500","small_left","poldrack-single-stim","132","356875","0.0-9.0-17.0","multisource","true","0","","<div class = centerbox><div class = center-ms-text ><span class = small>3</span>22</div></div>","49,50,51,97,98,99","1750","51,99","interference","test",""
"","1290","51","1750","500","large_left","poldrack-single-stim","133","359126","0.0-9.0-18.0","multisource","true","0","","<div class = centerbox><div class = center-ms-text ><span class = big>3</span>11</div></div>","49,50,51,97,98,99","1750","51,99","interference","test",""
"","1364","50","1750","500","small_right","poldrack-single-stim","134","361378","0.0-9.0-19.0","multisource","true","0","","<div class = centerbox><div class = center-ms-text >11<span class = small>2</span></div></div>","49,50,51,97,98,99","1750","50,98","interference","test",""
"","1498","49","1750","500","large_middle","poldrack-single-stim","135","363629","0.0-9.0-20.0","multisource","true","0","","<div class = centerbox><div class = center-ms-text >2<span class = big>1</span>2</div></div>","49,50,51,97,98,99","1750","49,97","interference","test",""
"","1167","50","1750","500","large_left","poldrack-single-stim","136","365881","0.0-9.0-21.0","multisource","true","0","","<div class = centerbox><div class = center-ms-text ><span class = big>3</span>22</div></div>","49,50,51,97,98,99","1750","51,99","interference","test",""
"","1157","50","1750","500","small_right","poldrack-single-stim","137","368131","0.0-9.0-22.0","multisource","true","0","","<div class = centerbox><div class = center-ms-text >33<span class = small>2</span></div></div>","49,50,51,97,98,99","1750","50,98","interference","test",""
"","-1","-1","1750","500","large_middle","poldrack-single-stim","138","370383","0.0-9.0-23.0","multisource","true","0","","<div class = centerbox><div class = center-ms-text >2<span class = big>3</span>2</div></div>","49,50,51,97,98,99","1750","51,99","interference","test",""
"","29736","","","","post task questions","survey-text","139","400623","0.0-11.0","multisource","true","0","","","","","","","","{""Q0"":""click on the number that was not identical to the others in the list"",""Q1"":""no""}"
"<div class = centerbox><p class = center-block-text>Thanks for completing this task!</p><p class = center-block-text>Press <strong>enter</strong> to continue.</p></div>","2578","13","2578","0","end","poldrack-text","140","404201","0.0-12.0","multisource","true","0","","","","","","","",""
