"text","rt","key_press","block_duration","timing_post_trial","trial_id","trial_type","trial_index","time_elapsed","internal_node_id","exp_id","full_screen","focus_shifts","view_history","stimulus","possible_responses","stim_duration","stimuli","key_presses","stim_durations","exp_stage","sequence","num_digits","mouse_click","response","condition","correct","responses"
"<div class = centerbox><p class = center-block-text>Welcome to the experiment. This experiment will take less than 10 minutes. Press <strong>enter</strong> to begin.</p></div>","1193","13","1193","0","instruction","poldrack-text","0","1194","0.0-0.0-0.0","digit-span","true","0","","","","","","","","","","","","","","",""
"","20427","","","","instruction","poldrack-instructions","1","21622","0.0-0.0-1.0","digit-span","true","0","[{""page_index"":0,""viewing_time"":20427}]","","","","","","","","","","","","","",""
"","-1","-1","1000","1000","test_intro","poldrack-single-stim","2","23625","0.0-1.0","digit-span","true","0","","<div class = centerbox><div class = center-text>3 Digits</p></div>","none","1000","","","","","","","","","","",""
"","[-1]","","3000","0","stim","poldrack-multi-stim-multi-response","3","27630","0.0-2.0","digit-span","true","0","","","none","","[""<div class = centerbox><div class = digit-span-text>5</div></div>"",""<div class = centerbox><div class = digit-span-text>9</div></div>"",""<div class = centerbox><div class = digit-span-text>3</div></div>""]","[-1]","[800,800,800]","test","5,9,3","3","","","","",""
"","4863","","4863","500","response","single-stim-button","4","32495","0.0-3.0","digit-span","true","0","","","","4863","","","","test","5,9,3","3","SubmitButton","5,9,3","forward","true",""
"","-1","-1","1000","1000","feedback","poldrack-single-stim","5","33997","0.0-4.0","digit-span","true","0","","<div class = centerbox><div class = center-text><span style=""color:green"">Correct!</span></div></div>","none","1000","","","","","","","","","","",""
"","-1","-1","1000","1000","test_intro","poldrack-single-stim","6","35999","0.0-5.0","digit-span","true","0","","<div class = centerbox><div class = center-text>4 Digits</p></div>","none","1000","","","","","","","","","","",""
"","[-1]","","4000","0","stim","poldrack-multi-stim-multi-response","7","41001","0.0-6.0","digit-span","true","0","","","none","","[""<div class = centerbox><div class = digit-span-text>7</div></div>"",""<div class = centerbox><div class = digit-span-text>2</div></div>"",""<div class = centerbox><div class = digit-span-text>6</div></div>"",""<div class = centerbox><div class = digit-span-text>2</div></div>""]","[-1]","[800,800,800,800]","test","7,2,6,2","4","","","","",""
"","6660","","6660","500","response","single-stim-button","8","47662","0.0-7.0","digit-span","true","0","","","","6660","","","","test","7,2,6,2","4","SubmitButton","7,2,6,2","forward","true",""
"","-1","-1","1000","1000","feedback","poldrack-single-stim","9","49163","0.0-8.0","digit-span","true","0","","<div class = centerbox><div class = center-text><span style=""color:green"">Correct!</span></div></div>","none","1000","","","","","","","","","","",""
"","-1","-1","1000","1000","test_intro","poldrack-single-stim","10","51164","0.0-9.0","digit-span","true","0","","<div class = centerbox><div class = center-text>5 Digits</p></div>","none","1000","","","","","","","","","","",""
"","[-1]","","5000","0","stim","poldrack-multi-stim-multi-response","11","57166","0.0-10.0","digit-span","true","0","","","none","","[""<div class = centerbox><div class = digit-span-text>6</div></div>"",""<div class = centerbox><div class = digit-span-text>2</div></div>"",""<div class = centerbox><div class = digit-span-text>6</div></div>"",""<div class = centerbox><div class = digit-span-text>9</div></div>"",""<div class = centerbox><div class = digit-span-text>3</div></div>""]","[-1]","[800,800,800,800,800]","test","6,2,6,9,3","5","","","","",""
"","4520","","4520","500","response","single-stim-button","12","61687","0.0-11.0","digit-span","true","0","","","","4520","","","","test","6,2,6,9,3","5","SubmitButton","6,2,6,9,3","forward","true",""
"","-1","-1","1000","1000","feedback","poldrack-single-stim","13","63188","0.0-12.0","digit-span","true","0","","<div class = centerbox><div class = center-text><span style=""color:green"">Correct!</span></div></div>","none","1000","","","","","","","","","","",""
"","-1","-1","1000","1000","test_intro","poldrack-single-stim","14","65189","0.0-13.0","digit-span","true","0","","<div class = centerbox><div class = center-text>6 Digits</p></div>","none","1000","","","","","","","","","","",""
"","[-1]","","6000","0","stim","poldrack-multi-stim-multi-response","15","72191","0.0-14.0","digit-span","true","0","","","none","","[""<div class = centerbox><div class = digit-span-text>3</div></div>"",""<div class = centerbox><div class = digit-span-text>8</div></div>"",""<div class = centerbox><div class = digit-span-text>5</div></div>"",""<div class = centerbox><div class = digit-span-text>8</div></div>"",""<div class = centerbox><div class = digit-span-text>4</div></div>"",""<div class = centerbox><div class = digit-span-text>9</div></div>""]","[-1]","[800,800,800,800,800,800]","test","3,8,5,8,4,9","6","","","","",""
"","5696","","5696","500","response","single-stim-button","16","77887","0.0-15.0","digit-span","true","0","","","","5696","","","","test","3,8,5,8,4,9","6","SubmitButton","3,8,5,8,4,9","forward","true",""
"","-1","-1","1000","1000","feedback","poldrack-single-stim","17","79389","0.0-16.0","digit-span","true","0","","<div class = centerbox><div class = center-text><span style=""color:green"">Correct!</span></div></div>","none","1000","","","","","","","","","","",""
"","-1","-1","1000","1000","test_intro","poldrack-single-stim","18","81391","0.0-17.0","digit-span","true","0","","<div class = centerbox><div class = center-text>7 Digits</p></div>","none","1000","","","","","","","","","","",""
"","[-1]","","7000","0","stim","poldrack-multi-stim-multi-response","19","89392","0.0-18.0","digit-span","true","0","","","none","","[""<div class = centerbox><div class = digit-span-text>6</div></div>"",""<div class = centerbox><div class = digit-span-text>1</div></div>"",""<div class = centerbox><div class = digit-span-text>7</div></div>"",""<div class = centerbox><div class = digit-span-text>2</div></div>"",""<div class = centerbox><div class = digit-span-text>5</div></div>"",""<div class = centerbox><div class = digit-span-text>1</div></div>"",""<div class = centerbox><div class = digit-span-text>4</div></div>""]","[-1]","[800,800,800,800,800,800,800]","test","6,1,7,2,5,1,4","7","","","","",""
"","5519","","5519","500","response","single-stim-button","20","94911","0.0-19.0","digit-span","true","0","","","","5519","","","","test","6,1,7,2,5,1,4","7","SubmitButton","6,1,7,2,5,1,4","forward","true",""
"","-1","-1","1000","1000","feedback","poldrack-single-stim","21","96413","0.0-20.0","digit-span","true","0","","<div class = centerbox><div class = center-text><span style=""color:green"">Correct!</span></div></div>","none","1000","","","","","","","","","","",""
"","-1","-1","1000","1000","test_intro","poldrack-single-stim","22","98414","0.0-21.0","digit-span","true","0","","<div class = centerbox><div class = center-text>8 Digits</p></div>","none","1000","","","","","","","","","","",""
"","[-1]","","8000","0","stim","poldrack-multi-stim-multi-response","23","107416","0.0-22.0","digit-span","true","0","","","none","","[""<div class = centerbox><div class = digit-span-text>6</div></div>"",""<div class = centerbox><div class = digit-span-text>2</div></div>"",""<div class = centerbox><div class = digit-span-text>7</div></div>"",""<div class = centerbox><div class = digit-span-text>4</div></div>"",""<div class = centerbox><div class = digit-span-text>8</div></div>"",""<div class = centerbox><div class = digit-span-text>3</div></div>"",""<div class = centerbox><div class = digit-span-text>7</div></div>"",""<div class = centerbox><div class = digit-span-text>4</div></div>""]","[-1]","[800,800,800,800,800,800,800,800]","test","6,2,7,4,8,3,7,4","8","","","","",""
"","9406","","9406","500","response","single-stim-button","24","116822","0.0-23.0","digit-span","true","0","","","","9406","","","","test","6,2,7,4,8,3,7,4","8","SubmitButton","6,2,7,4,1,3,7,2","forward","false",""
"","-1","-1","1000","1000","feedback","poldrack-single-stim","25","118324","0.0-24.0","digit-span","true","0","","<div class = centerbox><div class = center-text><span style=""color:red"">Incorrect</span></div></div>","none","1000","","","","","","","","","","",""
"","-1","-1","1000","1000","test_intro","poldrack-single-stim","26","120325","0.0-25.0","digit-span","true","0","","<div class = centerbox><div class = center-text>8 Digits</p></div>","none","1000","","","","","","","","","","",""
"","[-1]","","8000","0","stim","poldrack-multi-stim-multi-response","27","129328","0.0-26.0","digit-span","true","0","","","none","","[""<div class = centerbox><div class = digit-span-text>6</div></div>"",""<div class = centerbox><div class = digit-span-text>1</div></div>"",""<div class = centerbox><div class = digit-span-text>5</div></div>"",""<div class = centerbox><div class = digit-span-text>9</div></div>"",""<div class = centerbox><div class = digit-span-text>4</div></div>"",""<div class = centerbox><div class = digit-span-text>7</div></div>"",""<div class = centerbox><div class = digit-span-text>1</div></div>"",""<div class = centerbox><div class = digit-span-text>4</div></div>""]","[-1]","[800,800,800,800,800,800,800,800]","test","6,1,5,9,4,7,1,4","8","","","","",""
"","13559","","13559","500","response","single-stim-button","28","142887","0.0-27.0","digit-span","true","0","","","","13559","","","","test","6,1,5,9,4,7,1,4","8","SubmitButton","6,1,5,9,4,7,7,2","forward","false",""
"","-1","-1","1000","1000","feedback","poldrack-single-stim","29","144389","0.0-28.0","digit-span","true","0","","<div class = centerbox><div class = center-text><span style=""color:red"">Incorrect</span></div></div>","none","1000","","","","","","","","","","",""
"","-1","-1","1000","1000","test_intro","poldrack-single-stim","30","146390","0.0-29.0","digit-span","true","0","","<div class = centerbox><div class = center-text>7 Digits</p></div>","none","1000","","","","","","","","","","",""
"","[-1]","","7000","0","stim","poldrack-multi-stim-multi-response","31","154391","0.0-30.0","digit-span","true","0","","","none","","[""<div class = centerbox><div class = digit-span-text>4</div></div>"",""<div class = centerbox><div class = digit-span-text>8</div></div>"",""<div class = centerbox><div class = digit-span-text>5</div></div>"",""<div class = centerbox><div class = digit-span-text>8</div></div>"",""<div class = centerbox><div class = digit-span-text>1</div></div>"",""<div class = centerbox><div class = digit-span-text>8</div></div>"",""<div class = centerbox><div class = digit-span-text>1</div></div>""]","[-1]","[800,800,800,800,800,800,800]","test","4,8,5,8,1,8,1","7","","","","",""
"","5980","","5980","500","response","single-stim-button","32","160371","0.0-31.0","digit-span","true","0","","","","5980","","","","test","4,8,5,8,1,8,1","7","SubmitButton","4,8,5,7,1,8,1","forward","false",""
"","-1","-1","1000","1000","feedback","poldrack-single-stim","33","161872","0.0-32.0","digit-span","true","0","","<div class = centerbox><div class = center-text><span style=""color:red"">Incorrect</span></div></div>","none","1000","","","","","","","","","","",""
"","-1","-1","1000","1000","test_intro","poldrack-single-stim","34","163873","0.0-33.0","digit-span","true","0","","<div class = centerbox><div class = center-text>7 Digits</p></div>","none","1000","","","","","","","","","","",""
"","[-1]","","7000","0","stim","poldrack-multi-stim-multi-response","35","171874","0.0-34.0","digit-span","true","0","","","none","","[""<div class = centerbox><div class = digit-span-text>9</div></div>"",""<div class = centerbox><div class = digit-span-text>6</div></div>"",""<div class = centerbox><div class = digit-span-text>9</div></div>"",""<div class = centerbox><div class = digit-span-text>6</div></div>"",""<div class = centerbox><div class = digit-span-text>9</div></div>"",""<div class = centerbox><div class = digit-span-text>3</div></div>"",""<div class = centerbox><div class = digit-span-text>9</div></div>""]","[-1]","[800,800,800,800,800,800,800]","test","9,6,9,6,9,3,9","7","","","","",""
"","5556","","5556","500","response","single-stim-button","36","177431","0.0-35.0","digit-span","true","0","","","","5556","","","","test","9,6,9,6,9,3,9","7","SubmitButton","7,6,9,6,9,7,9","forward","false",""
"","-1","-1","1000","1000","feedback","poldrack-single-stim","37","178932","0.0-36.0","digit-span","true","0","","<div class = centerbox><div class = center-text><span style=""color:red"">Incorrect</span></div></div>","none","1000","","","","","","","","","","",""
"","-1","-1","1000","1000","test_intro","poldrack-single-stim","38","180933","0.0-37.0","digit-span","true","0","","<div class = centerbox><div class = center-text>6 Digits</p></div>","none","1000","","","","","","","","","","",""
"","[-1]","","6000","0","stim","poldrack-multi-stim-multi-response","39","187935","0.0-38.0","digit-span","true","0","","","none","","[""<div class = centerbox><div class = digit-span-text>7</div></div>"",""<div class = centerbox><div class = digit-span-text>3</div></div>"",""<div class = centerbox><div class = digit-span-text>6</div></div>"",""<div class = centerbox><div class = digit-span-text>3</div></div>"",""<div class = centerbox><div class = digit-span-text>8</div></div>"",""<div class = centerbox><div class = digit-span-text>1</div></div>""]","[-1]","[800,800,800,800,800,800]","test","7,3,6,3,8,1","6","","","","",""
"","5226","","5226","500","response","single-stim-button","40","193162","0.0-39.0","digit-span","true","0","","","","5226","","","","test","7,3,6,3,8,1","6","SubmitButton","7,3,6,8,1,3","forward","false",""
"","-1","-1","1000","1000","feedback","poldrack-single-stim","41","194663","0.0-40.0","digit-span","true","0","","<div class = centerbox><div class = center-text><span style=""color:red"">Incorrect</span></div></div>","none","1000","","","","","","","","","","",""
"","-1","-1","1000","1000","test_intro","poldrack-single-stim","42","196665","0.0-41.0","digit-span","true","0","","<div class = centerbox><div class = center-text>6 Digits</p></div>","none","1000","","","","","","","","","","",""
"","[-1]","","6000","0","stim","poldrack-multi-stim-multi-response","43","203666","0.0-42.0","digit-span","true","0","","","none","","[""<div class = centerbox><div class = digit-span-text>5</div></div>"",""<div class = centerbox><div class = digit-span-text>2</div></div>"",""<div class = centerbox><div class = digit-span-text>8</div></div>"",""<div class = centerbox><div class = digit-span-text>3</div></div>"",""<div class = centerbox><div class = digit-span-text>9</div></div>"",""<div class = centerbox><div class = digit-span-text>3</div></div>""]","[-1]","[800,800,800,800,800,800]","test","5,2,8,3,9,3","6","","","","",""
"","4526","","4526","500","response","single-stim-button","44","208193","0.0-43.0","digit-span","true","0","","","","4526","","","","test","5,2,8,3,9,3","6","SubmitButton","5,2,8,9,3,9","forward","false",""
"","-1","-1","1000","1000","feedback","poldrack-single-stim","45","209695","0.0-44.0","digit-span","true","0","","<div class = centerbox><div class = center-text><span style=""color:red"">Incorrect</span></div></div>","none","1000","","","","","","","","","","",""
"","-1","-1","1000","1000","test_intro","poldrack-single-stim","46","211696","0.0-45.0","digit-span","true","0","","<div class = centerbox><div class = center-text>5 Digits</p></div>","none","1000","","","","","","","","","","",""
"","[-1]","","5000","0","stim","poldrack-multi-stim-multi-response","47","217697","0.0-46.0","digit-span","true","0","","","none","","[""<div class = centerbox><div class = digit-span-text>6</div></div>"",""<div class = centerbox><div class = digit-span-text>1</div></div>"",""<div class = centerbox><div class = digit-span-text>7</div></div>"",""<div class = centerbox><div class = digit-span-text>2</div></div>"",""<div class = centerbox><div class = digit-span-text>5</div></div>""]","[-1]","[800,800,800,800,800]","test","6,1,7,2,5","5","","","","",""
"","3685","","3685","500","response","single-stim-button","48","221383","0.0-47.0","digit-span","true","0","","","","3685","","","","test","6,1,7,2,5","5","SubmitButton","6,1,7,2,5","forward","true",""
"","-1","-1","1000","1000","feedback","poldrack-single-stim","49","222884","0.0-48.0","digit-span","true","0","","<div class = centerbox><div class = center-text><span style=""color:green"">Correct!</span></div></div>","none","1000","","","","","","","","","","",""
"","-1","-1","1000","1000","test_intro","poldrack-single-stim","50","224885","0.0-49.0","digit-span","true","0","","<div class = centerbox><div class = center-text>6 Digits</p></div>","none","1000","","","","","","","","","","",""
"","[-1]","","6000","0","stim","poldrack-multi-stim-multi-response","51","231886","0.0-50.0","digit-span","true","0","","","none","","[""<div class = centerbox><div class = digit-span-text>6</div></div>"",""<div class = centerbox><div class = digit-span-text>2</div></div>"",""<div class = centerbox><div class = digit-span-text>8</div></div>"",""<div class = centerbox><div class = digit-span-text>2</div></div>"",""<div class = centerbox><div class = digit-span-text>5</div></div>"",""<div class = centerbox><div class = digit-span-text>8</div></div>""]","[-1]","[800,800,800,800,800,800]","test","6,2,8,2,5,8","6","","","","",""
"","4106","","4106","500","response","single-stim-button","52","235992","0.0-51.0","digit-span","true","0","","","","4106","","","","test","6,2,8,2,5,8","6","SubmitButton","6,2,8,5,2,8","forward","false",""
"","-1","-1","1000","1000","feedback","poldrack-single-stim","53","237495","0.0-52.0","digit-span","true","0","","<div class = centerbox><div class = center-text><span style=""color:red"">Incorrect</span></div></div>","none","1000","","","","","","","","","","",""
"","-1","-1","1000","1000","test_intro","poldrack-single-stim","54","239495","0.0-53.0","digit-span","true","0","","<div class = centerbox><div class = center-text>6 Digits</p></div>","none","1000","","","","","","","","","","",""
"","[-1]","","6000","0","stim","poldrack-multi-stim-multi-response","55","246497","0.0-54.0","digit-span","true","0","","","none","","[""<div class = centerbox><div class = digit-span-text>6</div></div>"",""<div class = centerbox><div class = digit-span-text>2</div></div>"",""<div class = centerbox><div class = digit-span-text>8</div></div>"",""<div class = centerbox><div class = digit-span-text>2</div></div>"",""<div class = centerbox><div class = digit-span-text>8</div></div>"",""<div class = centerbox><div class = digit-span-text>5</div></div>""]","[-1]","[800,800,800,800,800,800]","test","6,2,8,2,8,5","6","","","","",""
"","6608","","6608","500","response","single-stim-button","56","253105","0.0-55.0","digit-span","true","0","","","","6608","","","","test","6,2,8,2,8,5","6","SubmitButton","6,2,8,2,8,5","forward","true",""
"","-1","-1","1000","1000","feedback","poldrack-single-stim","57","254608","0.0-56.0","digit-span","true","0","","<div class = centerbox><div class = center-text><span style=""color:green"">Correct!</span></div></div>","none","1000","","","","","","","","","","",""
"<div class = centerbox><p class = block-text>In these next trials, instead of reporting back the sequence you just saw, report the <strong>reverse</strong> of that sequence. So the last item should be first in your response, the second to last should be the second in your response, etc...</p><p class = block-text>Press <strong>enter</strong> to begin.</p></div>","7309","13","7309","1000","start_reverse","poldrack-text","58","262918","0.0-58.0","digit-span","true","0","","","","","","","","","","","","","","",""
"","-1","-1","1000","1000","test_intro","poldrack-single-stim","59","264919","0.0-59.0","digit-span","true","0","","<div class = centerbox><div class = center-text>3 Digits</p></div>","none","1000","","","","","","","","","","",""
"","[-1]","","3000","0","stim","poldrack-multi-stim-multi-response","60","268922","0.0-60.0","digit-span","true","0","","","none","","[""<div class = centerbox><div class = digit-span-text>3</div></div>"",""<div class = centerbox><div class = digit-span-text>6</div></div>"",""<div class = centerbox><div class = digit-span-text>1</div></div>""]","[-1]","[800,800,800]","test","3,6,1","3","","","","",""
"","3224","","3224","500","response","single-stim-button","61","272146","0.0-61.0","digit-span","true","0","","","","3224","","","","test","3,6,1","3","SubmitButton","1,6,3","reverse","true",""
"","-1","-1","1000","1000","feedback","poldrack-single-stim","62","273648","0.0-62.0","digit-span","true","0","","<div class = centerbox><div class = center-text><span style=""color:green"">Correct!</span></div></div>","none","1000","","","","","","","","","","",""
"","-1","-1","1000","1000","test_intro","poldrack-single-stim","63","275649","0.0-63.0","digit-span","true","0","","<div class = centerbox><div class = center-text>4 Digits</p></div>","none","1000","","","","","","","","","","",""
"","[-1]","","4000","0","stim","poldrack-multi-stim-multi-response","64","280650","0.0-64.0","digit-span","true","0","","","none","","[""<div class = centerbox><div class = digit-span-text>8</div></div>"",""<div class = centerbox><div class = digit-span-text>3</div></div>"",""<div class = centerbox><div class = digit-span-text>7</div></div>"",""<div class = centerbox><div class = digit-span-text>1</div></div>""]","[-1]","[800,800,800,800]","test","8,3,7,1","4","","","","",""
"","6183","","6183","500","response","single-stim-button","65","286833","0.0-65.0","digit-span","true","0","","","","6183","","","","test","8,3,7,1","4","SubmitButton","1,7,3,8","reverse","true",""
"","-1","-1","1000","1000","feedback","poldrack-single-stim","66","288335","0.0-66.0","digit-span","true","0","","<div class = centerbox><div class = center-text><span style=""color:green"">Correct!</span></div></div>","none","1000","","","","","","","","","","",""
"","-1","-1","1000","1000","test_intro","poldrack-single-stim","67","290337","0.0-67.0","digit-span","true","0","","<div class = centerbox><div class = center-text>5 Digits</p></div>","none","1000","","","","","","","","","","",""
"","[-1]","","5000","0","stim","poldrack-multi-stim-multi-response","68","296339","0.0-68.0","digit-span","true","0","","","none","","[""<div class = centerbox><div class = digit-span-text>8</div></div>"",""<div class = centerbox><div class = digit-span-text>2</div></div>"",""<div class = centerbox><div class = digit-span-text>6</div></div>"",""<div class = centerbox><div class = digit-span-text>3</div></div>"",""<div class = centerbox><div class = digit-span-text>9</div></div>""]","[-1]","[800,800,800,800,800]","test","8,2,6,3,9","5","","","","",""
"","5846","","5846","500","response","single-stim-button","69","302186","0.0-69.0","digit-span","true","0","","","","5846","","","","test","8,2,6,3,9","5","SubmitButton","9,6,2,7,5","reverse","false",""
"","-1","-1","1000","1000","feedback","poldrack-single-stim","70","303687","0.0-70.0","digit-span","true","0","","<div class = centerbox><div class = center-text><span style=""color:red"">Incorrect</span></div></div>","none","1000","","","","","","","","","","",""
"","-1","-1","1000","1000","test_intro","poldrack-single-stim","71","305688","0.0-71.0","digit-span","true","0","","<div class = centerbox><div class = center-text>5 Digits</p></div>","none","1000","","","","","","","","","","",""
"","[-1]","","5000","0","stim","poldrack-multi-stim-multi-response","72","311689","0.0-72.0","digit-span","true","0","","","none","","[""<div class = centerbox><div class = digit-span-text>6</div></div>"",""<div class = centerbox><div class = digit-span-text>9</div></div>"",""<div class = centerbox><div class = digit-span-text>5</div></div>"",""<div class = centerbox><div class = digit-span-text>8</div></div>"",""<div class = centerbox><div class = digit-span-text>5</div></div>""]","[-1]","[800,800,800,800,800]","test","6,9,5,8,5","5","","","","",""
"","10984","","10984","500","response","single-stim-button","73","322674","0.0-73.0","digit-span","true","0","","","","10984","","","","test","6,9,5,8,5","5","SubmitButton","5,8,5,9,6","reverse","true",""
"","-1","-1","1000","1000","feedback","poldrack-single-stim","74","324175","0.0-74.0","digit-span","true","0","","<div class = centerbox><div class = center-text><span style=""color:green"">Correct!</span></div></div>","none","1000","","","","","","","","","","",""
"","-1","-1","1000","1000","test_intro","poldrack-single-stim","75","326177","0.0-75.0","digit-span","true","0","","<div class = centerbox><div class = center-text>6 Digits</p></div>","none","1000","","","","","","","","","","",""
"","[-1]","","6000","0","stim","poldrack-multi-stim-multi-response","76","333177","0.0-76.0","digit-span","true","0","","","none","","[""<div class = centerbox><div class = digit-span-text>6</div></div>"",""<div class = centerbox><div class = digit-span-text>9</div></div>"",""<div class = centerbox><div class = digit-span-text>4</div></div>"",""<div class = centerbox><div class = digit-span-text>8</div></div>"",""<div class = centerbox><div class = digit-span-text>3</div></div>"",""<div class = centerbox><div class = digit-span-text>9</div></div>""]","[-1]","[800,800,800,800,800,800]","test","6,9,4,8,3,9","6","","","","",""
"","10637","","10637","500","response","single-stim-button","77","343814","0.0-77.0","digit-span","true","0","","","","10637","","","","test","6,9,4,8,3,9","6","SubmitButton","9,3,8,4,5,6","reverse","false",""
"","-1","-1","1000","1000","feedback","poldrack-single-stim","78","345316","0.0-78.0","digit-span","true","0","","<div class = centerbox><div class = center-text><span style=""color:red"">Incorrect</span></div></div>","none","1000","","","","","","","","","","",""
"","-1","-1","1000","1000","test_intro","poldrack-single-stim","79","347317","0.0-79.0","digit-span","true","0","","<div class = centerbox><div class = center-text>5 Digits</p></div>","none","1000","","","","","","","","","","",""
"","[-1]","","5000","0","stim","poldrack-multi-stim-multi-response","80","353319","0.0-80.0","digit-span","true","0","","","none","","[""<div class = centerbox><div class = digit-span-text>4</div></div>"",""<div class = centerbox><div class = digit-span-text>1</div></div>"",""<div class = centerbox><div class = digit-span-text>4</div></div>"",""<div class = centerbox><div class = digit-span-text>1</div></div>"",""<div class = centerbox><div class = digit-span-text>5</div></div>""]","[-1]","[800,800,800,800,800]","test","4,1,4,1,5","5","","","","",""
"","4618","","4618","500","response","single-stim-button","81","357937","0.0-81.0","digit-span","true","0","","","","4618","","","","test","4,1,4,1,5","5","SubmitButton","5,1,4,1,4","reverse","true",""
"","-1","-1","1000","1000","feedback","poldrack-single-stim","82","359440","0.0-82.0","digit-span","true","0","","<div class = centerbox><div class = center-text><span style=""color:green"">Correct!</span></div></div>","none","1000","","","","","","","","","","",""
"","-1","-1","1000","1000","test_intro","poldrack-single-stim","83","361441","0.0-83.0","digit-span","true","0","","<div class = centerbox><div class = center-text>6 Digits</p></div>","none","1000","","","","","","","","","","",""
"","[-1]","","6000","0","stim","poldrack-multi-stim-multi-response","84","368443","0.0-84.0","digit-span","true","0","","","none","","[""<div class = centerbox><div class = digit-span-text>3</div></div>"",""<div class = centerbox><div class = digit-span-text>7</div></div>"",""<div class = centerbox><div class = digit-span-text>4</div></div>"",""<div class = centerbox><div class = digit-span-text>1</div></div>"",""<div class = centerbox><div class = digit-span-text>9</div></div>"",""<div class = centerbox><div class = digit-span-text>4</div></div>""]","[-1]","[800,800,800,800,800,800]","test","3,7,4,1,9,4","6","","","","",""
"","7526","","7526","500","response","single-stim-button","85","375970","0.0-85.0","digit-span","true","0","","","","7526","","","","test","3,7,4,1,9,4","6","SubmitButton","4,9,6,1,6,4","reverse","false",""
"","-1","-1","1000","1000","feedback","poldrack-single-stim","86","377472","0.0-86.0","digit-span","true","0","","<div class = centerbox><div class = center-text><span style=""color:red"">Incorrect</span></div></div>","none","1000","","","","","","","","","","",""
"","-1","-1","1000","1000","test_intro","poldrack-single-stim","87","379473","0.0-87.0","digit-span","true","0","","<div class = centerbox><div class = center-text>6 Digits</p></div>","none","1000","","","","","","","","","","",""
"","[-1]","","6000","0","stim","poldrack-multi-stim-multi-response","88","386475","0.0-88.0","digit-span","true","0","","","none","","[""<div class = centerbox><div class = digit-span-text>9</div></div>"",""<div class = centerbox><div class = digit-span-text>2</div></div>"",""<div class = centerbox><div class = digit-span-text>6</div></div>"",""<div class = centerbox><div class = digit-span-text>2</div></div>"",""<div class = centerbox><div class = digit-span-text>6</div></div>"",""<div class = centerbox><div class = digit-span-text>1</div></div>""]","[-1]","[800,800,800,800,800,800]","test","9,2,6,2,6,1","6","","","","",""
"","10278","","10278","500","response","single-stim-button","89","396754","0.0-89.0","digit-span","true","0","","","","10278","","","","test","9,2,6,2,6,1","6","SubmitButton","1,6,2,4,6,9","reverse","false",""
"","-1","-1","1000","1000","feedback","poldrack-single-stim","90","398258","0.0-90.0","digit-span","true","0","","<div class = centerbox><div class = center-text><span style=""color:red"">Incorrect</span></div></div>","none","1000","","","","","","","","","","",""
"","-1","-1","1000","1000","test_intro","poldrack-single-stim","91","400258","0.0-91.0","digit-span","true","0","","<div class = centerbox><div class = center-text>5 Digits</p></div>","none","1000","","","","","","","","","","",""
"","[-1]","","5000","0","stim","poldrack-multi-stim-multi-response","92","406261","0.0-92.0","digit-span","true","0","","","none","","[""<div class = centerbox><div class = digit-span-text>9</div></div>"",""<div class = centerbox><div class = digit-span-text>3</div></div>"",""<div class = centerbox><div class = digit-span-text>8</div></div>"",""<div class = centerbox><div class = digit-span-text>2</div></div>"",""<div class = centerbox><div class = digit-span-text>6</div></div>""]","[-1]","[800,800,800,800,800]","test","9,3,8,2,6","5","","","","",""
"","5205","","5205","500","response","single-stim-button","93","411466","0.0-93.0","digit-span","true","0","","","","5205","","","","test","9,3,8,2,6","5","SubmitButton","6,2,8,3,9","reverse","true",""
"","-1","-1","1000","1000","feedback","poldrack-single-stim","94","412968","0.0-94.0","digit-span","true","0","","<div class = centerbox><div class = center-text><span style=""color:green"">Correct!</span></div></div>","none","1000","","","","","","","","","","",""
"","-1","-1","1000","1000","test_intro","poldrack-single-stim","95","414970","0.0-95.0","digit-span","true","0","","<div class = centerbox><div class = center-text>6 Digits</p></div>","none","1000","","","","","","","","","","",""
"","[-1]","","6000","0","stim","poldrack-multi-stim-multi-response","96","421972","0.0-96.0","digit-span","true","0","","","none","","[""<div class = centerbox><div class = digit-span-text>9</div></div>"",""<div class = centerbox><div class = digit-span-text>3</div></div>"",""<div class = centerbox><div class = digit-span-text>6</div></div>"",""<div class = centerbox><div class = digit-span-text>1</div></div>"",""<div class = centerbox><div class = digit-span-text>9</div></div>"",""<div class = centerbox><div class = digit-span-text>6</div></div>""]","[-1]","[800,800,800,800,800,800]","test","9,3,6,1,9,6","6","","","","",""
"","7986","","7986","500","response","single-stim-button","97","429959","0.0-97.0","digit-span","true","0","","","","7986","","","","test","9,3,6,1,9,6","6","SubmitButton","6,1,9,6,3,9","reverse","false",""
"","-1","-1","1000","1000","feedback","poldrack-single-stim","98","431460","0.0-98.0","digit-span","true","0","","<div class = centerbox><div class = center-text><span style=""color:red"">Incorrect</span></div></div>","none","1000","","","","","","","","","","",""
"","-1","-1","1000","1000","test_intro","poldrack-single-stim","99","433461","0.0-99.0","digit-span","true","0","","<div class = centerbox><div class = center-text>6 Digits</p></div>","none","1000","","","","","","","","","","",""
"","[-1]","","6000","0","stim","poldrack-multi-stim-multi-response","100","440464","0.0-100.0","digit-span","true","0","","","none","","[""<div class = centerbox><div class = digit-span-text>9</div></div>"",""<div class = centerbox><div class = digit-span-text>4</div></div>"",""<div class = centerbox><div class = digit-span-text>1</div></div>"",""<div class = centerbox><div class = digit-span-text>8</div></div>"",""<div class = centerbox><div class = digit-span-text>2</div></div>"",""<div class = centerbox><div class = digit-span-text>9</div></div>""]","[-1]","[800,800,800,800,800,800]","test","9,4,1,8,2,9","6","","","","",""
"","7677","","7677","500","response","single-stim-button","101","448142","0.0-101.0","digit-span","true","0","","","","7677","","","","test","9,4,1,8,2,9","6","SubmitButton","9,2,8,1,4,9","reverse","true",""
"","-1","-1","1000","1000","feedback","poldrack-single-stim","102","449643","0.0-102.0","digit-span","true","0","","<div class = centerbox><div class = center-text><span style=""color:green"">Correct!</span></div></div>","none","1000","","","","","","","","","","",""
"","-1","-1","1000","1000","test_intro","poldrack-single-stim","103","451644","0.0-103.0","digit-span","true","0","","<div class = centerbox><div class = center-text>7 Digits</p></div>","none","1000","","","","","","","","","","",""
"","[-1]","","7000","0","stim","poldrack-multi-stim-multi-response","104","459646","0.0-104.0","digit-span","true","0","","","none","","[""<div class = centerbox><div class = digit-span-text>5</div></div>"",""<div class = centerbox><div class = digit-span-text>8</div></div>"",""<div class = centerbox><div class = digit-span-text>4</div></div>"",""<div class = centerbox><div class = digit-span-text>8</div></div>"",""<div class = centerbox><div class = digit-span-text>5</div></div>"",""<div class = centerbox><div class = digit-span-text>9</div></div>"",""<div class = centerbox><div class = digit-span-text>4</div></div>""]","[-1]","[800,800,800,800,800,800,800]","test","5,8,4,8,5,9,4","7","","","","",""
"","12308","","12308","500","response","single-stim-button","105","471955","0.0-105.0","digit-span","true","0","","","","12308","","","","test","5,8,4,8,5,9,4","7","SubmitButton","4,4,5,9,9,5,8","reverse","false",""
"","-1","-1","1000","1000","feedback","poldrack-single-stim","106","473456","0.0-106.0","digit-span","true","0","","<div class = centerbox><div class = center-text><span style=""color:red"">Incorrect</span></div></div>","none","1000","","","","","","","","","","",""
"","-1","-1","1000","1000","test_intro","poldrack-single-stim","107","475457","0.0-107.0","digit-span","true","0","","<div class = centerbox><div class = center-text>6 Digits</p></div>","none","1000","","","","","","","","","","",""
"","[-1]","","6000","0","stim","poldrack-multi-stim-multi-response","108","482458","0.0-108.0","digit-span","true","0","","","none","","[""<div class = centerbox><div class = digit-span-text>5</div></div>"",""<div class = centerbox><div class = digit-span-text>1</div></div>"",""<div class = centerbox><div class = digit-span-text>7</div></div>"",""<div class = centerbox><div class = digit-span-text>4</div></div>"",""<div class = centerbox><div class = digit-span-text>7</div></div>"",""<div class = centerbox><div class = digit-span-text>1</div></div>""]","[-1]","[800,800,800,800,800,800]","test","5,1,7,4,7,1","6","","","","",""
"","11185","","11185","500","response","single-stim-button","109","493643","0.0-109.0","digit-span","true","0","","","","11185","","","","test","5,1,7,4,7,1","6","SubmitButton","1,7,4,7,1,5","reverse","true",""
"","-1","-1","1000","1000","feedback","poldrack-single-stim","110","495145","0.0-110.0","digit-span","true","0","","<div class = centerbox><div class = center-text><span style=""color:green"">Correct!</span></div></div>","none","1000","","","","","","","","","","",""
"","-1","-1","1000","1000","test_intro","poldrack-single-stim","111","497146","0.0-111.0","digit-span","true","0","","<div class = centerbox><div class = center-text>7 Digits</p></div>","none","1000","","","","","","","","","","",""
"","[-1]","","7000","0","stim","poldrack-multi-stim-multi-response","112","505148","0.0-112.0","digit-span","true","0","","","none","","[""<div class = centerbox><div class = digit-span-text>4</div></div>"",""<div class = centerbox><div class = digit-span-text>7</div></div>"",""<div class = centerbox><div class = digit-span-text>1</div></div>"",""<div class = centerbox><div class = digit-span-text>4</div></div>"",""<div class = centerbox><div class = digit-span-text>1</div></div>"",""<div class = centerbox><div class = digit-span-text>4</div></div>"",""<div class = centerbox><div class = digit-span-text>7</div></div>""]","[-1]","[800,800,800,800,800,800,800]","test","4,7,1,4,1,4,7","7","","","","",""
"","7336","","7336","500","response","single-stim-button","113","512484","0.0-113.0","digit-span","true","0","","","","7336","","","","test","4,7,1,4,1,4,7","7","SubmitButton","7,4,1,4,4,7,9","reverse","false",""
"","-1","-1","1000","1000","feedback","poldrack-single-stim","114","513986","0.0-114.0","digit-span","true","0","","<div class = centerbox><div class = center-text><span style=""color:red"">Incorrect</span></div></div>","none","1000","","","","","","","","","","",""
"","24664","","","","post task questions","survey-text","115","539653","0.0-115.0","digit-span","true","0","","","","","","","","","","","","","","","{""Q0"":""In this task I was asked to repeat the numbers I saw on the screen in backwards order."",""Q1"":""no""}"
"<div class = centerbox><p class = center-block-text>Thanks for completing this task!</p><p class = center-block-text>Press <strong>enter</strong> to continue.</p></div>","1434","13","1434","0","end","poldrack-text","116","542088","0.0-116.0","digit-span","true","0","","","","","","","","","","","","","","",""
