"text","rt","key_press","block_duration","timing_post_trial","trial_id","trial_type","trial_index","time_elapsed","internal_node_id","exp_id","full_screen","focus_shifts","view_history","stimulus","possible_responses","stim_duration","correct_response","condition","exp_stage","responses"
"<div class = centerbox><p class = center-block-text>Welcome to the experiment. Press <strong>enter</strong> to begin.</p></div>","1288","13","1288","0","instruction","poldrack-text","0","1289","0.0-0.0-0.0","multisource","true","0","","","","","","","",""
"","98445","","","","instruction","poldrack-instructions","1","99737","0.0-0.0-1.0","multisource","true","0","[{""page_index"":0,""viewing_time"":51787},{""page_index"":1,""viewing_time"":46658}]","","","","","","",""
"","949","50","1750","500","large_right","poldrack-single-stim","2","102491","0.0-1.0-0.0","multisource","true","0","","<div class = centerbox><div class = center-ms-text >x<span class = big>2</span>x</div></div>","49,50,51,97,98,99","1750","50,98","practice_control","practice",""
"","497","49","1750","500","large_middle","poldrack-single-stim","3","104742","0.0-1.0-1.0","multisource","true","0","","<div class = centerbox><div class = center-ms-text ><span class = big>1</span>xx</div></div>","49,50,51,97,98,99","1750","49,97","practice_control","practice",""
"","653","49","1750","500","large_middle","poldrack-single-stim","4","106993","0.0-1.0-2.0","multisource","true","0","","<div class = centerbox><div class = center-ms-text ><span class = big>1</span>xx</div></div>","49,50,51,97,98,99","1750","49,97","practice_control","practice",""
"","651","51","1750","500","small_middle","poldrack-single-stim","5","109245","0.0-1.0-3.0","multisource","true","0","","<div class = centerbox><div class = center-ms-text >xx<span class = big>3</span></div></div>","49,50,51,97,98,99","1750","51,99","practice_control","practice",""
"","590","49","1750","500","large_middle","poldrack-single-stim","6","111496","0.0-1.0-4.0","multisource","true","0","","<div class = centerbox><div class = center-ms-text ><span class = big>1</span>xx</div></div>","49,50,51,97,98,99","1750","49,97","practice_control","practice",""
"","572","51","1750","500","small_middle","poldrack-single-stim","7","113747","0.0-1.0-5.0","multisource","true","0","","<div class = centerbox><div class = center-ms-text >xx<span class = big>3</span></div></div>","49,50,51,97,98,99","1750","51,99","practice_control","practice",""
"","656","49","1750","500","large_middle","poldrack-single-stim","8","115998","0.0-1.0-6.0","multisource","true","0","","<div class = centerbox><div class = center-ms-text ><span class = big>1</span>xx</div></div>","49,50,51,97,98,99","1750","49,97","practice_control","practice",""
"","621","50","1750","500","large_right","poldrack-single-stim","9","118249","0.0-1.0-7.0","multisource","true","0","","<div class = centerbox><div class = center-ms-text >x<span class = big>2</span>x</div></div>","49,50,51,97,98,99","1750","50,98","practice_control","practice",""
"","698","50","1750","500","large_right","poldrack-single-stim","10","120499","0.0-1.0-8.0","multisource","true","0","","<div class = centerbox><div class = center-ms-text >x<span class = big>2</span>x</div></div>","49,50,51,97,98,99","1750","50,98","practice_control","practice",""
"","657","49","1750","500","large_middle","poldrack-single-stim","11","122751","0.0-1.0-9.0","multisource","true","0","","<div class = centerbox><div class = center-ms-text ><span class = big>1</span>xx</div></div>","49,50,51,97,98,99","1750","49,97","practice_control","practice",""
"","453","50","1750","500","large_right","poldrack-single-stim","12","125002","0.0-1.0-10.0","multisource","true","0","","<div class = centerbox><div class = center-ms-text >x<span class = big>2</span>x</div></div>","49,50,51,97,98,99","1750","50,98","practice_control","practice",""
"","559","49","1750","500","large_middle","poldrack-single-stim","13","127255","0.0-1.0-11.0","multisource","true","0","","<div class = centerbox><div class = center-ms-text ><span class = big>1</span>xx</div></div>","49,50,51,97,98,99","1750","49,97","practice_control","practice",""
"","797","51","1750","500","small_middle","poldrack-single-stim","14","129505","0.0-1.0-12.0","multisource","true","0","","<div class = centerbox><div class = center-ms-text >xx<span class = big>3</span></div></div>","49,50,51,97,98,99","1750","51,99","practice_control","practice",""
"","619","51","1750","500","small_middle","poldrack-single-stim","15","131756","0.0-1.0-13.0","multisource","true","0","","<div class = centerbox><div class = center-ms-text >xx<span class = big>3</span></div></div>","49,50,51,97,98,99","1750","51,99","practice_control","practice",""
"","527","51","1750","500","small_middle","poldrack-single-stim","16","134008","0.0-1.0-14.0","multisource","true","0","","<div class = centerbox><div class = center-ms-text >xx<span class = big>3</span></div></div>","49,50,51,97,98,99","1750","51,99","practice_control","practice",""
"","757","50","1750","500","large_right","poldrack-single-stim","17","136258","0.0-1.0-15.0","multisource","true","0","","<div class = centerbox><div class = center-ms-text >x<span class = big>2</span>x</div></div>","49,50,51,97,98,99","1750","50,98","practice_control","practice",""
"","641","49","1750","500","large_middle","poldrack-single-stim","18","138509","0.0-1.0-16.0","multisource","true","0","","<div class = centerbox><div class = center-ms-text ><span class = big>1</span>xx</div></div>","49,50,51,97,98,99","1750","49,97","practice_control","practice",""
"","670","51","1750","500","small_middle","poldrack-single-stim","19","140760","0.0-1.0-17.0","multisource","true","0","","<div class = centerbox><div class = center-ms-text >xx<span class = big>3</span></div></div>","49,50,51,97,98,99","1750","51,99","practice_control","practice",""
"","635","50","1750","500","large_right","poldrack-single-stim","20","143011","0.0-1.0-18.0","multisource","true","0","","<div class = centerbox><div class = center-ms-text >x<span class = big>2</span>x</div></div>","49,50,51,97,98,99","1750","50,98","practice_control","practice",""
"","697","51","1750","500","small_middle","poldrack-single-stim","21","145261","0.0-1.0-19.0","multisource","true","0","","<div class = centerbox><div class = center-ms-text >xx<span class = big>3</span></div></div>","49,50,51,97,98,99","1750","51,99","practice_control","practice",""
"","1334","51","1750","500","large_right","poldrack-single-stim","22","147513","0.0-2.0-0.0","multisource","true","0","","<div class = centerbox><div class = center-ms-text >11<span class = big>2</span></div></div>","49,50,51,97,98,99","1750","50,98","practice_interference","practice",""
"","683","49","1750","500","large_left","poldrack-single-stim","23","149764","0.0-2.0-1.0","multisource","true","0","","<div class = centerbox><div class = center-ms-text ><span class = big>3</span>11</div></div>","49,50,51,97,98,99","1750","51,99","practice_interference","practice",""
"","-1","-1","1750","500","small_middle","poldrack-single-stim","24","152014","0.0-2.0-2.0","multisource","true","0","","<div class = centerbox><div class = center-ms-text >3<span class = small>1</span>2</div></div>","49,50,51,97,98,99","1750","49,97","practice_interference","practice",""
"","1109","51","1750","500","large_right","poldrack-single-stim","25","154265","0.0-2.0-3.0","multisource","true","0","","<div class = centerbox><div class = center-ms-text >33<span class = big>2</span></div></div>","49,50,51,97,98,99","1750","50,98","practice_interference","practice",""
"","1426","49","1750","500","small_right","poldrack-single-stim","26","156516","0.0-2.0-4.0","multisource","true","0","","<div class = centerbox><div class = center-ms-text >33<span class = small>1</span></div></div>","49,50,51,97,98,99","1750","49,97","practice_interference","practice",""
"","1000","49","1750","500","large_middle","poldrack-single-stim","27","158767","0.0-2.0-5.0","multisource","true","0","","<div class = centerbox><div class = center-ms-text >2<span class = big>1</span>2</div></div>","49,50,51,97,98,99","1750","49,97","practice_interference","practice",""
"","964","50","1750","500","large_left","poldrack-single-stim","28","161018","0.0-2.0-6.0","multisource","true","0","","<div class = centerbox><div class = center-ms-text ><span class = big>2</span>33</div></div>","49,50,51,97,98,99","1750","50,98","practice_interference","practice",""
"","1537","50","1750","500","small_right","poldrack-single-stim","29","163270","0.0-2.0-7.0","multisource","true","0","","<div class = centerbox><div class = center-ms-text >33<span class = small>2</span></div></div>","49,50,51,97,98,99","1750","50,98","practice_interference","practice",""
"","1181","51","1750","500","small_middle","poldrack-single-stim","30","165521","0.0-2.0-8.0","multisource","true","0","","<div class = centerbox><div class = center-ms-text >2<span class = small>3</span>2</div></div>","49,50,51,97,98,99","1750","51,99","practice_interference","practice",""
"","987","51","1750","500","large_middle","poldrack-single-stim","31","167772","0.0-2.0-9.0","multisource","true","0","","<div class = centerbox><div class = center-ms-text >1<span class = big>3</span>1</div></div>","49,50,51,97,98,99","1750","51,99","practice_interference","practice",""
"","815","51","1750","500","large_middle","poldrack-single-stim","32","170023","0.0-2.0-10.0","multisource","true","0","","<div class = centerbox><div class = center-ms-text >2<span class = big>3</span>2</div></div>","49,50,51,97,98,99","1750","51,99","practice_interference","practice",""
"","820","49","1750","500","large_right","poldrack-single-stim","33","172274","0.0-2.0-11.0","multisource","true","0","","<div class = centerbox><div class = center-ms-text >33<span class = big>1</span></div></div>","49,50,51,97,98,99","1750","49,97","practice_interference","practice",""
"","890","51","1750","500","large_left","poldrack-single-stim","34","174524","0.0-2.0-12.0","multisource","true","0","","<div class = centerbox><div class = center-ms-text ><span class = big>3</span>22</div></div>","49,50,51,97,98,99","1750","51,99","practice_interference","practice",""
"","-1","-1","1750","500","small_left","poldrack-single-stim","35","176776","0.0-2.0-13.0","multisource","true","0","","<div class = centerbox><div class = center-ms-text ><span class = small>2</span>33</div></div>","49,50,51,97,98,99","1750","50,98","practice_interference","practice",""
"","1196","51","1750","500","small_left","poldrack-single-stim","36","179027","0.0-2.0-14.0","multisource","true","0","","<div class = centerbox><div class = center-ms-text ><span class = small>3</span>22</div></div>","49,50,51,97,98,99","1750","51,99","practice_interference","practice",""
"","936","50","1750","500","small_middle","poldrack-single-stim","37","181278","0.0-2.0-15.0","multisource","true","0","","<div class = centerbox><div class = center-ms-text >1<span class = small>3</span>1</div></div>","49,50,51,97,98,99","1750","51,99","practice_interference","practice",""
"","1750","49","1750","500","small_middle","poldrack-single-stim","38","183528","0.0-2.0-16.0","multisource","true","0","","<div class = centerbox><div class = center-ms-text >2<span class = small>1</span>2</div></div>","49,50,51,97,98,99","1750","49,97","practice_interference","practice",""
"","1114","50","1750","500","large_left","poldrack-single-stim","39","185780","0.0-2.0-17.0","multisource","true","0","","<div class = centerbox><div class = center-ms-text ><span class = big>2</span>11</div></div>","49,50,51,97,98,99","1750","50,98","practice_interference","practice",""
"","1062","49","1750","500","large_middle","poldrack-single-stim","40","188031","0.0-2.0-18.0","multisource","true","0","","<div class = centerbox><div class = center-ms-text >3<span class = big>1</span>2</div></div>","49,50,51,97,98,99","1750","49,97","practice_interference","practice",""
"","1517","49","1750","500","small_right","poldrack-single-stim","41","190282","0.0-2.0-19.0","multisource","true","0","","<div class = centerbox><div class = center-ms-text >22<span class = small>1</span></div></div>","49,50,51,97,98,99","1750","49,97","practice_interference","practice",""
"<div class = centerbox><p class = center-block-text>Starting test. Press <strong>enter</strong> to begin.</p></div>","2544","13","2544","1000","test_intro","poldrack-text","42","193328","0.0-3.0","multisource","true","0","","","","","","","",""
"","865","51","1750","500","small_middle","poldrack-single-stim","43","196079","0.0-4.0-0.0","multisource","true","0","","<div class = centerbox><div class = center-ms-text >xx<span class = big>3</span></div></div>","49,50,51,97,98,99","1750","51,99","control","test",""
"","564","51","1750","500","small_middle","poldrack-single-stim","44","198331","0.0-4.0-1.0","multisource","true","0","","<div class = centerbox><div class = center-ms-text >xx<span class = big>3</span></div></div>","49,50,51,97,98,99","1750","51,99","control","test",""
"","487","51","1750","500","small_middle","poldrack-single-stim","45","200582","0.0-4.0-2.0","multisource","true","0","","<div class = centerbox><div class = center-ms-text >xx<span class = big>3</span></div></div>","49,50,51,97,98,99","1750","51,99","control","test",""
"","725","50","1750","500","large_right","poldrack-single-stim","46","202833","0.0-4.0-3.0","multisource","true","0","","<div class = centerbox><div class = center-ms-text >x<span class = big>2</span>x</div></div>","49,50,51,97,98,99","1750","50,98","control","test",""
"","714","49","1750","500","large_middle","poldrack-single-stim","47","205084","0.0-4.0-4.0","multisource","true","0","","<div class = centerbox><div class = center-ms-text ><span class = big>1</span>xx</div></div>","49,50,51,97,98,99","1750","49,97","control","test",""
"","639","50","1750","500","large_right","poldrack-single-stim","48","207336","0.0-4.0-5.0","multisource","true","0","","<div class = centerbox><div class = center-ms-text >x<span class = big>2</span>x</div></div>","49,50,51,97,98,99","1750","50,98","control","test",""
"","627","51","1750","500","small_middle","poldrack-single-stim","49","209587","0.0-4.0-6.0","multisource","true","0","","<div class = centerbox><div class = center-ms-text >xx<span class = big>3</span></div></div>","49,50,51,97,98,99","1750","51,99","control","test",""
"","495","49","1750","500","large_middle","poldrack-single-stim","50","211838","0.0-4.0-7.0","multisource","true","0","","<div class = centerbox><div class = center-ms-text ><span class = big>1</span>xx</div></div>","49,50,51,97,98,99","1750","49,97","control","test",""
"","486","50","1750","500","large_right","poldrack-single-stim","51","214089","0.0-4.0-8.0","multisource","true","0","","<div class = centerbox><div class = center-ms-text >x<span class = big>2</span>x</div></div>","49,50,51,97,98,99","1750","50,98","control","test",""
"","521","50","1750","500","large_right","poldrack-single-stim","52","216340","0.0-4.0-9.0","multisource","true","0","","<div class = centerbox><div class = center-ms-text >x<span class = big>2</span>x</div></div>","49,50,51,97,98,99","1750","50,98","control","test",""
"","584","50","1750","500","large_right","poldrack-single-stim","53","218590","0.0-4.0-10.0","multisource","true","0","","<div class = centerbox><div class = center-ms-text >x<span class = big>2</span>x</div></div>","49,50,51,97,98,99","1750","50,98","control","test",""
"","573","51","1750","500","small_middle","poldrack-single-stim","54","220843","0.0-4.0-11.0","multisource","true","0","","<div class = centerbox><div class = center-ms-text >xx<span class = big>3</span></div></div>","49,50,51,97,98,99","1750","51,99","control","test",""
"","514","51","1750","500","small_middle","poldrack-single-stim","55","223094","0.0-4.0-12.0","multisource","true","0","","<div class = centerbox><div class = center-ms-text >xx<span class = big>3</span></div></div>","49,50,51,97,98,99","1750","51,99","control","test",""
"","575","49","1750","500","large_middle","poldrack-single-stim","56","225345","0.0-4.0-13.0","multisource","true","0","","<div class = centerbox><div class = center-ms-text ><span class = big>1</span>xx</div></div>","49,50,51,97,98,99","1750","49,97","control","test",""
"","596","50","1750","500","large_right","poldrack-single-stim","57","227595","0.0-4.0-14.0","multisource","true","0","","<div class = centerbox><div class = center-ms-text >x<span class = big>2</span>x</div></div>","49,50,51,97,98,99","1750","50,98","control","test",""
"","602","49","1750","500","large_middle","poldrack-single-stim","58","229847","0.0-4.0-15.0","multisource","true","0","","<div class = centerbox><div class = center-ms-text ><span class = big>1</span>xx</div></div>","49,50,51,97,98,99","1750","49,97","control","test",""
"","607","49","1750","500","large_middle","poldrack-single-stim","59","232098","0.0-4.0-16.0","multisource","true","0","","<div class = centerbox><div class = center-ms-text ><span class = big>1</span>xx</div></div>","49,50,51,97,98,99","1750","49,97","control","test",""
"","516","49","1750","500","large_middle","poldrack-single-stim","60","234348","0.0-4.0-17.0","multisource","true","0","","<div class = centerbox><div class = center-ms-text ><span class = big>1</span>xx</div></div>","49,50,51,97,98,99","1750","49,97","control","test",""
"","457","49","1750","500","large_middle","poldrack-single-stim","61","236599","0.0-4.0-18.0","multisource","true","0","","<div class = centerbox><div class = center-ms-text ><span class = big>1</span>xx</div></div>","49,50,51,97,98,99","1750","49,97","control","test",""
"","494","50","1750","500","large_right","poldrack-single-stim","62","238850","0.0-4.0-19.0","multisource","true","0","","<div class = centerbox><div class = center-ms-text >x<span class = big>2</span>x</div></div>","49,50,51,97,98,99","1750","50,98","control","test",""
"","498","50","1750","500","large_right","poldrack-single-stim","63","241101","0.0-4.0-20.0","multisource","true","0","","<div class = centerbox><div class = center-ms-text >x<span class = big>2</span>x</div></div>","49,50,51,97,98,99","1750","50,98","control","test",""
"","625","49","1750","500","large_middle","poldrack-single-stim","64","243351","0.0-4.0-21.0","multisource","true","0","","<div class = centerbox><div class = center-ms-text ><span class = big>1</span>xx</div></div>","49,50,51,97,98,99","1750","49,97","control","test",""
"","710","51","1750","500","small_middle","poldrack-single-stim","65","245603","0.0-4.0-22.0","multisource","true","0","","<div class = centerbox><div class = center-ms-text >xx<span class = big>3</span></div></div>","49,50,51,97,98,99","1750","51,99","control","test",""
"","538","51","1750","500","small_middle","poldrack-single-stim","66","247853","0.0-4.0-23.0","multisource","true","0","","<div class = centerbox><div class = center-ms-text >xx<span class = big>3</span></div></div>","49,50,51,97,98,99","1750","51,99","control","test",""
"","608","49","1750","500","large_left","poldrack-single-stim","67","250104","0.0-6.0-0.0","multisource","true","0","","<div class = centerbox><div class = center-ms-text ><span class = big>2</span>11</div></div>","49,50,51,97,98,99","1750","50,98","interference","test",""
"","1253","51","1750","500","small_left","poldrack-single-stim","68","252356","0.0-6.0-1.0","multisource","true","0","","<div class = centerbox><div class = center-ms-text ><span class = small>3</span>22</div></div>","49,50,51,97,98,99","1750","51,99","interference","test",""
"","1146","50","1750","500","small_right","poldrack-single-stim","69","254606","0.0-6.0-2.0","multisource","true","0","","<div class = centerbox><div class = center-ms-text >11<span class = small>2</span></div></div>","49,50,51,97,98,99","1750","50,98","interference","test",""
"","895","49","1750","500","large_right","poldrack-single-stim","70","256857","0.0-6.0-3.0","multisource","true","0","","<div class = centerbox><div class = center-ms-text >33<span class = big>1</span></div></div>","49,50,51,97,98,99","1750","49,97","interference","test",""
"","1179","51","1750","500","small_middle","poldrack-single-stim","71","259109","0.0-6.0-4.0","multisource","true","0","","<div class = centerbox><div class = center-ms-text >2<span class = small>3</span>2</div></div>","49,50,51,97,98,99","1750","51,99","interference","test",""
"","984","49","1750","500","small_middle","poldrack-single-stim","72","261360","0.0-6.0-5.0","multisource","true","0","","<div class = centerbox><div class = center-ms-text >2<span class = small>1</span>2</div></div>","49,50,51,97,98,99","1750","49,97","interference","test",""
"","886","50","1750","500","large_right","poldrack-single-stim","73","263610","0.0-6.0-6.0","multisource","true","0","","<div class = centerbox><div class = center-ms-text >33<span class = big>2</span></div></div>","49,50,51,97,98,99","1750","50,98","interference","test",""
"","1394","50","1750","500","small_left","poldrack-single-stim","74","265862","0.0-6.0-7.0","multisource","true","0","","<div class = centerbox><div class = center-ms-text ><span class = small>2</span>11</div></div>","49,50,51,97,98,99","1750","50,98","interference","test",""
"","1135","50","1750","500","small_left","poldrack-single-stim","75","268113","0.0-6.0-8.0","multisource","true","0","","<div class = centerbox><div class = center-ms-text ><span class = small>2</span>33</div></div>","49,50,51,97,98,99","1750","50,98","interference","test",""
"","797","49","1750","500","small_right","poldrack-single-stim","76","270363","0.0-6.0-9.0","multisource","true","0","","<div class = centerbox><div class = center-ms-text >22<span class = small>1</span></div></div>","49,50,51,97,98,99","1750","49,97","interference","test",""
"","1025","50","1750","500","large_left","poldrack-single-stim","77","272615","0.0-6.0-10.0","multisource","true","0","","<div class = centerbox><div class = center-ms-text ><span class = big>2</span>33</div></div>","49,50,51,97,98,99","1750","50,98","interference","test",""
"","949","50","1750","500","small_middle","poldrack-single-stim","78","274867","0.0-6.0-11.0","multisource","true","0","","<div class = centerbox><div class = center-ms-text >3<span class = small>1</span>2</div></div>","49,50,51,97,98,99","1750","49,97","interference","test",""
"","1058","51","1750","500","large_left","poldrack-single-stim","79","277117","0.0-6.0-12.0","multisource","true","0","","<div class = centerbox><div class = center-ms-text ><span class = big>3</span>22</div></div>","49,50,51,97,98,99","1750","51,99","interference","test",""
"","1391","50","1750","500","large_right","poldrack-single-stim","80","279368","0.0-6.0-13.0","multisource","true","0","","<div class = centerbox><div class = center-ms-text >11<span class = big>2</span></div></div>","49,50,51,97,98,99","1750","50,98","interference","test",""
"","820","51","1750","500","large_left","poldrack-single-stim","81","281620","0.0-6.0-14.0","multisource","true","0","","<div class = centerbox><div class = center-ms-text ><span class = big>3</span>11</div></div>","49,50,51,97,98,99","1750","51,99","interference","test",""
"","993","49","1750","500","large_right","poldrack-single-stim","82","283872","0.0-6.0-15.0","multisource","true","0","","<div class = centerbox><div class = center-ms-text >22<span class = big>1</span></div></div>","49,50,51,97,98,99","1750","49,97","interference","test",""
"","1055","49","1750","500","small_right","poldrack-single-stim","83","286122","0.0-6.0-16.0","multisource","true","0","","<div class = centerbox><div class = center-ms-text >33<span class = small>1</span></div></div>","49,50,51,97,98,99","1750","49,97","interference","test",""
"","1155","50","1750","500","small_right","poldrack-single-stim","84","288374","0.0-6.0-17.0","multisource","true","0","","<div class = centerbox><div class = center-ms-text >33<span class = small>2</span></div></div>","49,50,51,97,98,99","1750","50,98","interference","test",""
"","992","49","1750","500","large_middle","poldrack-single-stim","85","290626","0.0-6.0-18.0","multisource","true","0","","<div class = centerbox><div class = center-ms-text >2<span class = big>1</span>2</div></div>","49,50,51,97,98,99","1750","49,97","interference","test",""
"","733","49","1750","500","large_middle","poldrack-single-stim","86","292877","0.0-6.0-19.0","multisource","true","0","","<div class = centerbox><div class = center-ms-text >3<span class = big>1</span>2</div></div>","49,50,51,97,98,99","1750","49,97","interference","test",""
"","977","51","1750","500","large_middle","poldrack-single-stim","87","295128","0.0-6.0-20.0","multisource","true","0","","<div class = centerbox><div class = center-ms-text >2<span class = big>3</span>2</div></div>","49,50,51,97,98,99","1750","51,99","interference","test",""
"","1174","51","1750","500","small_left","poldrack-single-stim","88","297379","0.0-6.0-21.0","multisource","true","0","","<div class = centerbox><div class = center-ms-text ><span class = small>3</span>11</div></div>","49,50,51,97,98,99","1750","51,99","interference","test",""
"","1435","51","1750","500","small_middle","poldrack-single-stim","89","299631","0.0-6.0-22.0","multisource","true","0","","<div class = centerbox><div class = center-ms-text >1<span class = small>3</span>1</div></div>","49,50,51,97,98,99","1750","51,99","interference","test",""
"","984","51","1750","500","large_middle","poldrack-single-stim","90","301882","0.0-6.0-23.0","multisource","true","0","","<div class = centerbox><div class = center-ms-text >1<span class = big>3</span>1</div></div>","49,50,51,97,98,99","1750","51,99","interference","test",""
"","756","51","1750","500","small_middle","poldrack-single-stim","91","304133","0.0-8.0-0.0","multisource","true","0","","<div class = centerbox><div class = center-ms-text >xx<span class = big>3</span></div></div>","49,50,51,97,98,99","1750","51,99","control","test",""
"","712","49","1750","500","large_middle","poldrack-single-stim","92","306384","0.0-8.0-1.0","multisource","true","0","","<div class = centerbox><div class = center-ms-text ><span class = big>1</span>xx</div></div>","49,50,51,97,98,99","1750","49,97","control","test",""
"","479","50","1750","500","large_right","poldrack-single-stim","93","308634","0.0-8.0-2.0","multisource","true","0","","<div class = centerbox><div class = center-ms-text >x<span class = big>2</span>x</div></div>","49,50,51,97,98,99","1750","50,98","control","test",""
"","428","51","1750","500","small_middle","poldrack-single-stim","94","310886","0.0-8.0-3.0","multisource","true","0","","<div class = centerbox><div class = center-ms-text >xx<span class = big>3</span></div></div>","49,50,51,97,98,99","1750","51,99","control","test",""
"","464","51","1750","500","small_middle","poldrack-single-stim","95","313137","0.0-8.0-4.0","multisource","true","0","","<div class = centerbox><div class = center-ms-text >xx<span class = big>3</span></div></div>","49,50,51,97,98,99","1750","51,99","control","test",""
"","564","51","1750","500","small_middle","poldrack-single-stim","96","315388","0.0-8.0-5.0","multisource","true","0","","<div class = centerbox><div class = center-ms-text >xx<span class = big>3</span></div></div>","49,50,51,97,98,99","1750","51,99","control","test",""
"","651","50","1750","500","large_right","poldrack-single-stim","97","317639","0.0-8.0-6.0","multisource","true","0","","<div class = centerbox><div class = center-ms-text >x<span class = big>2</span>x</div></div>","49,50,51,97,98,99","1750","50,98","control","test",""
"","663","49","1750","500","large_middle","poldrack-single-stim","98","319890","0.0-8.0-7.0","multisource","true","0","","<div class = centerbox><div class = center-ms-text ><span class = big>1</span>xx</div></div>","49,50,51,97,98,99","1750","49,97","control","test",""
"","581","49","1750","500","large_middle","poldrack-single-stim","99","322141","0.0-8.0-8.0","multisource","true","0","","<div class = centerbox><div class = center-ms-text ><span class = big>1</span>xx</div></div>","49,50,51,97,98,99","1750","49,97","control","test",""
"","513","49","1750","500","large_middle","poldrack-single-stim","100","324391","0.0-8.0-9.0","multisource","true","0","","<div class = centerbox><div class = center-ms-text ><span class = big>1</span>xx</div></div>","49,50,51,97,98,99","1750","49,97","control","test",""
"","511","49","1750","500","large_middle","poldrack-single-stim","101","326642","0.0-8.0-10.0","multisource","true","0","","<div class = centerbox><div class = center-ms-text ><span class = big>1</span>xx</div></div>","49,50,51,97,98,99","1750","49,97","control","test",""
"","594","51","1750","500","small_middle","poldrack-single-stim","102","328893","0.0-8.0-11.0","multisource","true","0","","<div class = centerbox><div class = center-ms-text >xx<span class = big>3</span></div></div>","49,50,51,97,98,99","1750","51,99","control","test",""
"","592","51","1750","500","small_middle","poldrack-single-stim","103","331144","0.0-8.0-12.0","multisource","true","0","","<div class = centerbox><div class = center-ms-text >xx<span class = big>3</span></div></div>","49,50,51,97,98,99","1750","51,99","control","test",""
"","695","49","1750","500","large_middle","poldrack-single-stim","104","333394","0.0-8.0-13.0","multisource","true","0","","<div class = centerbox><div class = center-ms-text ><span class = big>1</span>xx</div></div>","49,50,51,97,98,99","1750","49,97","control","test",""
"","484","50","1750","500","large_right","poldrack-single-stim","105","335645","0.0-8.0-14.0","multisource","true","0","","<div class = centerbox><div class = center-ms-text >x<span class = big>2</span>x</div></div>","49,50,51,97,98,99","1750","50,98","control","test",""
"","688","49","1750","500","large_middle","poldrack-single-stim","106","337897","0.0-8.0-15.0","multisource","true","0","","<div class = centerbox><div class = center-ms-text ><span class = big>1</span>xx</div></div>","49,50,51,97,98,99","1750","49,97","control","test",""
"","597","50","1750","500","large_right","poldrack-single-stim","107","340147","0.0-8.0-16.0","multisource","true","0","","<div class = centerbox><div class = center-ms-text >x<span class = big>2</span>x</div></div>","49,50,51,97,98,99","1750","50,98","control","test",""
"","515","50","1750","500","large_right","poldrack-single-stim","108","342399","0.0-8.0-17.0","multisource","true","0","","<div class = centerbox><div class = center-ms-text >x<span class = big>2</span>x</div></div>","49,50,51,97,98,99","1750","50,98","control","test",""
"","575","51","1750","500","small_middle","poldrack-single-stim","109","344650","0.0-8.0-18.0","multisource","true","0","","<div class = centerbox><div class = center-ms-text >xx<span class = big>3</span></div></div>","49,50,51,97,98,99","1750","51,99","control","test",""
"","685","50","1750","500","large_right","poldrack-single-stim","110","346900","0.0-8.0-19.0","multisource","true","0","","<div class = centerbox><div class = center-ms-text >x<span class = big>2</span>x</div></div>","49,50,51,97,98,99","1750","50,98","control","test",""
"","563","49","1750","500","large_middle","poldrack-single-stim","111","349152","0.0-8.0-20.0","multisource","true","0","","<div class = centerbox><div class = center-ms-text ><span class = big>1</span>xx</div></div>","49,50,51,97,98,99","1750","49,97","control","test",""
"","615","50","1750","500","large_right","poldrack-single-stim","112","351403","0.0-8.0-21.0","multisource","true","0","","<div class = centerbox><div class = center-ms-text >x<span class = big>2</span>x</div></div>","49,50,51,97,98,99","1750","50,98","control","test",""
"","667","51","1750","500","small_middle","poldrack-single-stim","113","353654","0.0-8.0-22.0","multisource","true","0","","<div class = centerbox><div class = center-ms-text >xx<span class = big>3</span></div></div>","49,50,51,97,98,99","1750","51,99","control","test",""
"","514","50","1750","500","large_right","poldrack-single-stim","114","355904","0.0-8.0-23.0","multisource","true","0","","<div class = centerbox><div class = center-ms-text >x<span class = big>2</span>x</div></div>","49,50,51,97,98,99","1750","50,98","control","test",""
"","1565","50","1750","500","small_right","poldrack-single-stim","115","358157","0.0-9.0-0.0","multisource","true","0","","<div class = centerbox><div class = center-ms-text >11<span class = small>2</span></div></div>","49,50,51,97,98,99","1750","50,98","interference","test",""
"","921","49","1750","500","large_middle","poldrack-single-stim","116","360408","0.0-9.0-1.0","multisource","true","0","","<div class = centerbox><div class = center-ms-text >3<span class = big>1</span>2</div></div>","49,50,51,97,98,99","1750","49,97","interference","test",""
"","871","50","1750","500","large_right","poldrack-single-stim","117","362659","0.0-9.0-2.0","multisource","true","0","","<div class = centerbox><div class = center-ms-text >33<span class = big>2</span></div></div>","49,50,51,97,98,99","1750","50,98","interference","test",""
"","820","51","1750","500","large_middle","poldrack-single-stim","118","364910","0.0-9.0-3.0","multisource","true","0","","<div class = centerbox><div class = center-ms-text >1<span class = big>3</span>1</div></div>","49,50,51,97,98,99","1750","51,99","interference","test",""
"","1032","49","1750","500","small_middle","poldrack-single-stim","119","367161","0.0-9.0-4.0","multisource","true","0","","<div class = centerbox><div class = center-ms-text >3<span class = small>1</span>2</div></div>","49,50,51,97,98,99","1750","49,97","interference","test",""
"","829","49","1750","500","small_right","poldrack-single-stim","120","369412","0.0-9.0-5.0","multisource","true","0","","<div class = centerbox><div class = center-ms-text >33<span class = small>1</span></div></div>","49,50,51,97,98,99","1750","49,97","interference","test",""
"","843","51","1750","500","large_middle","poldrack-single-stim","121","371662","0.0-9.0-6.0","multisource","true","0","","<div class = centerbox><div class = center-ms-text >2<span class = big>3</span>2</div></div>","49,50,51,97,98,99","1750","51,99","interference","test",""
"","825","50","1750","500","small_middle","poldrack-single-stim","122","373913","0.0-9.0-7.0","multisource","true","0","","<div class = centerbox><div class = center-ms-text >2<span class = small>1</span>2</div></div>","49,50,51,97,98,99","1750","49,97","interference","test",""
"","1157","50","1750","500","small_left","poldrack-single-stim","123","376165","0.0-9.0-8.0","multisource","true","0","","<div class = centerbox><div class = center-ms-text ><span class = small>2</span>11</div></div>","49,50,51,97,98,99","1750","50,98","interference","test",""
"","811","51","1750","500","small_middle","poldrack-single-stim","124","378415","0.0-9.0-9.0","multisource","true","0","","<div class = centerbox><div class = center-ms-text >1<span class = small>3</span>1</div></div>","49,50,51,97,98,99","1750","51,99","interference","test",""
"","848","51","1750","500","small_middle","poldrack-single-stim","125","380666","0.0-9.0-10.0","multisource","true","0","","<div class = centerbox><div class = center-ms-text >2<span class = small>3</span>2</div></div>","49,50,51,97,98,99","1750","51,99","interference","test",""
"","804","49","1750","500","large_middle","poldrack-single-stim","126","382917","0.0-9.0-11.0","multisource","true","0","","<div class = centerbox><div class = center-ms-text >2<span class = big>1</span>2</div></div>","49,50,51,97,98,99","1750","49,97","interference","test",""
"","881","51","1750","500","small_left","poldrack-single-stim","127","385168","0.0-9.0-12.0","multisource","true","0","","<div class = centerbox><div class = center-ms-text ><span class = small>3</span>11</div></div>","49,50,51,97,98,99","1750","51,99","interference","test",""
"","832","49","1750","500","large_right","poldrack-single-stim","128","387418","0.0-9.0-13.0","multisource","true","0","","<div class = centerbox><div class = center-ms-text >22<span class = big>1</span></div></div>","49,50,51,97,98,99","1750","49,97","interference","test",""
"","1180","50","1750","500","large_right","poldrack-single-stim","129","389670","0.0-9.0-14.0","multisource","true","0","","<div class = centerbox><div class = center-ms-text >11<span class = big>2</span></div></div>","49,50,51,97,98,99","1750","50,98","interference","test",""
"","920","50","1750","500","small_left","poldrack-single-stim","130","391921","0.0-9.0-15.0","multisource","true","0","","<div class = centerbox><div class = center-ms-text ><span class = small>2</span>33</div></div>","49,50,51,97,98,99","1750","50,98","interference","test",""
"","741","51","1750","500","large_left","poldrack-single-stim","131","394173","0.0-9.0-16.0","multisource","true","0","","<div class = centerbox><div class = center-ms-text ><span class = big>3</span>22</div></div>","49,50,51,97,98,99","1750","51,99","interference","test",""
"","994","49","1750","500","small_right","poldrack-single-stim","132","396423","0.0-9.0-17.0","multisource","true","0","","<div class = centerbox><div class = center-ms-text >33<span class = small>2</span></div></div>","49,50,51,97,98,99","1750","50,98","interference","test",""
"","887","50","1750","500","large_left","poldrack-single-stim","133","398676","0.0-9.0-18.0","multisource","true","0","","<div class = centerbox><div class = center-ms-text ><span class = big>2</span>11</div></div>","49,50,51,97,98,99","1750","50,98","interference","test",""
"","769","50","1750","500","large_left","poldrack-single-stim","134","400928","0.0-9.0-19.0","multisource","true","0","","<div class = centerbox><div class = center-ms-text ><span class = big>2</span>33</div></div>","49,50,51,97,98,99","1750","50,98","interference","test",""
"","791","51","1750","500","large_left","poldrack-single-stim","135","403180","0.0-9.0-20.0","multisource","true","0","","<div class = centerbox><div class = center-ms-text ><span class = big>3</span>11</div></div>","49,50,51,97,98,99","1750","51,99","interference","test",""
"","1260","49","1750","500","small_right","poldrack-single-stim","136","405431","0.0-9.0-21.0","multisource","true","0","","<div class = centerbox><div class = center-ms-text >22<span class = small>1</span></div></div>","49,50,51,97,98,99","1750","49,97","interference","test",""
"","673","49","1750","500","large_right","poldrack-single-stim","137","407682","0.0-9.0-22.0","multisource","true","0","","<div class = centerbox><div class = center-ms-text >33<span class = big>1</span></div></div>","49,50,51,97,98,99","1750","49,97","interference","test",""
"","1158","51","1750","500","small_left","poldrack-single-stim","138","409934","0.0-9.0-23.0","multisource","true","0","","<div class = centerbox><div class = center-ms-text ><span class = small>3</span>22</div></div>","49,50,51,97,98,99","1750","51,99","interference","test",""
"","18515","","","","post task questions","survey-text","139","428953","0.0-11.0","multisource","true","0","","","","","","","","{""Q0"":""Identify which number was different than the other two"",""Q1"":""No""}"
"<div class = centerbox><p class = center-block-text>Thanks for completing this task!</p><p class = center-block-text>Press <strong>enter</strong> to continue.</p></div>","2052","13","2052","0","end","poldrack-text","140","432005","0.0-12.0","multisource","true","0","","","","","","","",""
